,congruency,mean_rt,qu10_rt,qu20_rt,qu30_rt,qu40_rt,qu50_rt,qu60_rt,qu70_rt,qu80_rt,qu90_rt,qu100_rt,mean_acc,mean_rt_overall,nonconvergent_trials,accuracy_overall,n_posterior_draws,condition,id,slurm_id,split,spacing,estimation_level,number_parts,time_post_sampling_sec
0,0.0,0.4166354510124662,0.34106667665474943,0.35782201149214726,0.37113445067155415,0.38462701218612766,0.39896288055750945,0.41593975141455025,0.43620795411991764,0.4660354994361212,0.516014047686574,1.0421701413857627,0.972,0.42044379499473267,0.0,0.9685714285714285,50,1152,1108,772022,no_split,wide,individual,1,0.7293264865875244
1,1.0,0.4242926532746828,0.34887399395397745,0.36682380099471157,0.38104562358792204,0.39402963595393864,0.4080044326835745,0.4239298535617392,0.44351136786002915,0.47263588762673836,0.5211384393450927,0.9501762623911164,0.9651063829787234,0.42044379499473267,0.0,0.9685714285714285,50,1152,1108,772022,no_split,wide,individual,1,0.7293264865875244
0,0.0,0.4399029356317051,0.3550419157101814,0.3775503795384714,0.3945265786736114,0.409602893630509,0.42591662681051945,0.4436896495193089,0.4657311739187928,0.49472895423959495,0.538817279645492,1.2043688149806833,0.971005291005291,0.44658739655097635,0.0,0.9583157894736842,50,1152,1507,772022,no_split,wide,individual,1,0.7407622337341309
1,1.0,0.45320186311507205,0.35896939018613605,0.3825692826394581,0.40049941621709195,0.4175352568634772,0.43518329560255126,0.45530711637397786,0.48024503944335395,0.5150665490427004,0.5715630792717,1.1103848782418382,0.945759162303665,0.44658739655097635,0.0,0.9583157894736842,50,1152,1507,772022,no_split,wide,individual,1,0.7407622337341309
0,0.0,0.447521337128836,0.3556846139228685,0.37961189355350683,0.39727568333059937,0.4136015345864551,0.4310554755558064,0.4495898067301785,0.47287796372754387,0.5049561416135386,0.5567167663359709,1.2573745627227222,0.9893684210526316,0.45618894310232794,0.0,0.9836220472440945,50,1152,1538,772022,no_split,wide,individual,1,0.729041337966919
1,1.0,0.46481116893983315,0.3616436003322037,0.38749934250746265,0.4066903768778404,0.4256493664231911,0.44578638154888606,0.4685398527072275,0.49614481357676343,0.5334657971307166,0.5923348202586045,1.2208903288040365,0.9779057591623037,0.45618894310232794,0.0,0.9836220472440945,50,1152,1538,772022,no_split,wide,individual,1,0.729041337966919
0,0.0,0.4652986969233076,0.37432164029246606,0.3965247453149829,0.41306583354859855,0.42984222275689404,0.4474696486944093,0.4669877164285038,0.4909263231136905,0.524961287224654,0.577257852818356,1.124883936065932,0.9844565217391305,0.4664126084082851,0.0,0.9837837837837838,50,1152,1582,772022,no_split,wide,individual,1,0.7303009033203125
1,1.0,0.4675145423504133,0.3820386161332081,0.4038058916281882,0.4209466854711204,0.4364086556340584,0.4524853891505849,0.47038336927360913,0.49221143788572874,0.5211449282842519,0.5713451446329575,1.1248091057249865,0.9831182795698925,0.4664126084082851,0.0,0.9837837837837838,50,1152,1582,772022,no_split,wide,individual,1,0.7303009033203125
0,0.0,0.43304629797566185,0.35518683578813376,0.37351318234238634,0.3883505806474269,0.402504882359618,0.4171523716617943,0.43431857398229406,0.4543334953262302,0.4819932992131261,0.5309437791002912,1.1162716604126663,0.974869109947644,0.44511264211939927,0.0,0.9586945169712794,50,1152,1583,772022,no_split,wide,individual,1,0.7300379276275635
1,1.0,0.4571161407207215,0.36968127018267855,0.3917022386827267,0.4092519013397781,0.4250413148343751,0.4420266210475165,0.4607566536742528,0.48399079909133436,0.514513967634232,0.5633098746383332,1.0252964127936917,0.9426041666666667,0.44511264211939927,0.0,0.9586945169712794,50,1152,1583,772022,no_split,wide,individual,1,0.7300379276275635
0,0.0,0.5599630506361215,0.4024290850705428,0.43923447959020023,0.4672746542660712,0.4947150179174182,0.5241095714815984,0.5590982217145218,0.603927605040828,0.6620410525429368,0.7591216099412953,1.5376155332864707,0.9648587570621469,0.5662382069415153,0.0,0.9622527472527472,50,1152,1597,772022,no_split,wide,individual,1,0.7280757427215576
1,1.0,0.5721777933910057,0.4100667335981343,0.446041547226334,0.47487635929262245,0.5056075356416088,0.5359452996856944,0.5711051369757103,0.6152242429251685,0.675603816133959,0.7832633542689361,1.5818800102962132,0.9597860962566845,0.5662382069415153,0.0,0.9622527472527472,50,1152,1597,772022,no_split,wide,individual,1,0.7280757427215576
0,0.0,0.4045896757214275,0.33483635106063697,0.35440580678963013,0.36901539528201205,0.3819790079010445,0.3953361819877791,0.410130649926522,0.42731410661553826,0.4484896009921086,0.4837396545947196,0.9844719669354565,0.994421052631579,0.4134828684510827,0.0,0.9886015831134565,50,1152,1601,772022,no_split,wide,individual,1,0.7327189445495605
1,1.0,0.4224231151105244,0.34065131866545634,0.36221888733513424,0.378869614330943,0.3935316619270297,0.4090188303556266,0.4268690678199287,0.4478292639458949,0.4756879673578873,0.5202356478566039,0.829439662602528,0.9827513227513227,0.4134828684510827,0.0,0.9886015831134565,50,1152,1601,772022,no_split,wide,individual,1,0.7327189445495605
0,0.0,0.478644125928713,0.34899601422070636,0.3764854868705641,0.39967081356500506,0.4223064765700579,0.44906042998967255,0.4758909246090399,0.5098558205201681,0.5594244091009118,0.6510010849044043,1.4541309050173765,0.9749473684210527,0.48434493417872987,0.0,0.9706315789473684,50,1152,1614,772022,no_split,wide,individual,1,0.732252836227417
1,1.0,0.4900457424287466,0.3565134897072365,0.38626640256562456,0.41066619731091736,0.4353510984192289,0.46068637319908523,0.48963536752341996,0.5256581698688224,0.5776840661935525,0.6643000070787574,1.4374095397697702,0.9663157894736842,0.48434493417872987,0.0,0.9706315789473684,50,1152,1614,772022,no_split,wide,individual,1,0.732252836227417
0,0.0,0.42529093557826353,0.37363029824841965,0.38821141760587763,0.3997137577560389,0.40979615636367256,0.4196091890777157,0.4298461137200819,0.44221216746644665,0.45843197104246625,0.4838070668763157,0.7721086229113536,0.9973684210526316,0.430403096148873,0.0,0.9959580052493439,50,1152,161753,772022,no_split,wide,individual,1,0.7273380756378174
1,1.0,0.43548849148089286,0.3787414985766928,0.3930988424234854,0.40457260003968326,0.4156146392352626,0.42685738702586484,0.4395092430648356,0.4546024629634258,0.473317354391928,0.5031015607433509,0.7335770206141197,0.9945549738219895,0.430403096148873,0.0,0.9959580052493439,50,1152,161753,772022,no_split,wide,individual,1,0.7273380756378174
0,0.0,0.4670418369654734,0.37018550268489525,0.3922486699362763,0.40959779656275946,0.4268960121036605,0.445656707200626,0.46664943707643386,0.49309781950405196,0.5294541971552613,0.5939437509185157,1.1518650795255525,0.9819148936170212,0.47018907847137414,0.0,0.9787335092348285,50,1152,1638,772022,no_split,wide,individual,1,0.7341938018798828
1,1.0,0.4732868868646169,0.37956480107295915,0.40187080750713505,0.41911883292961644,0.43593468630924964,0.45409038519486394,0.474611495859225,0.49954663956676104,0.5347803390509333,0.5934269550221576,1.2006923375851921,0.9756020942408377,0.47018907847137414,0.0,0.9787335092348285,50,1152,1638,772022,no_split,wide,individual,1,0.7341938018798828
0,0.0,0.3939828421873692,0.325579616226677,0.3444422940704008,0.3591100917598565,0.3713884093533691,0.3836565350537896,0.39731161880719207,0.414163735656779,0.4357615303385128,0.4721125144202742,0.9484506673811354,0.9801052631578947,0.40002137352215644,0.0,0.9721372031662269,50,1152,1657,772022,no_split,wide,individual,1,0.7230615615844727
1,1.0,0.406091854758186,0.3290025307675307,0.34914361715065373,0.36402710489409784,0.378634564100897,0.39418808306636305,0.41080151757139427,0.4302492306561885,0.4563242605866225,0.49839029737539375,0.848611139835482,0.9641269841269842,0.40002137352215644,0.0,0.9721372031662269,50,1152,1657,772022,no_split,wide,individual,1,0.7230615615844727
0,0.0,0.4613735451255041,0.37359677096451027,0.3930317714636562,0.409604594054524,0.4251594648378709,0.44134858591262227,0.46018582675761205,0.48443294156425126,0.5170481119638317,0.5713549234984567,1.1817224340692225,0.9915957446808511,0.46901977333554234,0.0,0.9867724867724867,50,1152,1663,772022,no_split,wide,individual,1,0.7279882431030273
1,1.0,0.4765855149328434,0.38317538673136264,0.40445558535258813,0.42158940163766406,0.43899014923896484,0.45714153613954794,0.4780892354103823,0.5040498939973677,0.5375883436179081,0.5970915817578822,1.0928506781537803,0.982,0.46901977333554234,0.0,0.9867724867724867,50,1152,1663,772022,no_split,wide,individual,1,0.7279882431030273
0,0.0,0.5130225024727693,0.3992325010015194,0.42742383846470516,0.44902088201404605,0.469955249571083,0.4903552527217083,0.5149930121574631,0.5448748861076445,0.5831197526450671,0.653548140474377,1.258422156594055,0.9743010752688172,0.519368534350157,0.0,0.9671849865951743,50,1152,1761,772022,no_split,wide,individual,1,0.7321369647979736
1,1.0,0.5256806302282003,0.40660965814744765,0.4346339531841956,0.4586275601053191,0.4799037131225405,0.5025056810916608,0.5285546446948673,0.5594934321830897,0.6032163522498587,0.6742934280702548,1.3032601092529952,0.9601069518716577,0.519368534350157,0.0,0.9671849865951743,50,1152,1761,772022,no_split,wide,individual,1,0.7321369647979736
0,0.0,0.4463372409984035,0.34261044705923926,0.3704276279889114,0.3913703889188857,0.41089951747805936,0.42894266041815415,0.44990983019511155,0.47602167527229367,0.5106997176880873,0.5707071403384634,1.254576833576626,0.9372774869109948,0.4471789395310872,0.0,0.9323560209424083,50,1152,1768,772022,no_split,wide,individual,1,0.730349063873291
1,1.0,0.44802063806377085,0.34479787658340805,0.37027642297516006,0.39116975682391253,0.4113819735032772,0.43093271372219,0.4538510122352307,0.4803600312658148,0.5152181238762841,0.5710707791837754,1.175519924843163,0.927434554973822,0.4471789395310872,0.0,0.9323560209424083,50,1152,1768,772022,no_split,wide,individual,1,0.730349063873291
0,0.0,0.372365814767345,0.29939766666086054,0.3196523239360978,0.33483381916378796,0.34906946453922266,0.36291981144074204,0.3783433088623791,0.3956370484642604,0.41883189667900134,0.457500856278374,0.7819414900210064,0.9602127659574468,0.37579420043713613,0.0,0.9538297872340425,50,1152,1813,772022,no_split,wide,individual,1,0.7311897277832031
1,1.0,0.37922258610692716,0.3024788237161723,0.3232071671251987,0.33891074145237116,0.35324227327090657,0.3678973643679014,0.38353909875551784,0.4021280726788566,0.42800392056101094,0.46961232296013417,0.886373910702641,0.9474468085106383,0.37579420043713613,0.0,0.9538297872340425,50,1152,1813,772022,no_split,wide,individual,1,0.7311897277832031
0,0.0,0.38917593552060264,0.3143529124084883,0.3326437717608721,0.3471670518513224,0.3602104103954033,0.37434662510523053,0.3902577078941985,0.40940724024652675,0.4353312515049842,0.4807106591641056,1.0770199862612817,0.9869473684210527,0.39240732734531397,0.0,0.9851443569553806,50,1152,1821,772022,no_split,wide,individual,1,0.7366816997528076
1,1.0,0.3956218008882205,0.31782248742727437,0.33621130672940264,0.350888374524351,0.36520996418148366,0.37983169374197806,0.3958709968349597,0.41563760116872467,0.44572350444679915,0.49507403411066814,1.0444001677964152,0.9833507853403142,0.39240732734531397,0.0,0.9851443569553806,50,1152,1821,772022,no_split,wide,individual,1,0.7366816997528076
