,congruency,mean_rt,qu10_rt,qu20_rt,qu30_rt,qu40_rt,qu50_rt,qu60_rt,qu70_rt,qu80_rt,qu90_rt,qu100_rt,mean_acc,mean_rt_overall,nonconvergent_trials,accuracy_overall,n_posterior_draws,condition,id,slurm_id,split,spacing,estimation_level,number_parts,time_post_sampling_sec
0,0.0,0.41255584799306605,0.32720537322090654,0.3420211850346261,0.35599929790260554,0.37043385701730697,0.3877159389694337,0.4075335587993889,0.4321751871531523,0.46984458026325765,0.5338459252154263,1.217090288847397,0.9858947368421053,0.42040146759763297,0.0,0.9838624338624339,50,1149,1108,772025,no_split,wide,individual,1,0.4848337173461914
1,1.0,0.4283305512405465,0.3405578206629194,0.3565366788467283,0.37182419587463306,0.3876406556324425,0.40519377435801207,0.4260607974937325,0.4522598456966508,0.48570621355302546,0.5464426198619885,1.0641821754951177,0.9818085106382979,0.42040146759763297,0.0,0.9838624338624339,50,1149,1108,772025,no_split,wide,individual,1,0.4848337173461914
0,0.0,0.44733745407170744,0.33702094423756346,0.3565181064527198,0.3755047641459748,0.39473055730396206,0.41678767487787005,0.44316294977090837,0.4751780022193768,0.520689055199871,0.5978107349761536,1.2323885890911186,0.9940740740740741,0.4528926139157621,0.0,0.9927894736842106,50,1149,1507,772025,no_split,wide,individual,1,0.4776790142059326
1,1.0,0.45838960454678984,0.34284100828781977,0.36541843096406845,0.38538858909111856,0.4060168452536195,0.42998499098499415,0.4558826302675866,0.4883196642057743,0.5327480929393652,0.6114530241999803,1.2956760601031827,0.9915183246073298,0.4528926139157621,0.0,0.9927894736842106,50,1149,1507,772025,no_split,wide,individual,1,0.4776790142059326
0,0.0,0.44868719678133523,0.34908583834121804,0.3667999605806773,0.38380280099486397,0.40166960586567857,0.42180766367891603,0.4451152660572323,0.4744319852950338,0.5139751748054372,0.5844195541144348,1.193673237218528,0.9953684210526316,0.45492300669983227,0.0,0.99501312335958,50,1149,1538,772025,no_split,wide,individual,1,0.4650845527648926
1,1.0,0.4611261683988606,0.35779808402337004,0.3781129033029364,0.39736753237564904,0.41611644743438025,0.4365339253211887,0.459802800994864,0.4888125263629681,0.5290434738058526,0.594573510625364,1.2567106299463042,0.9946596858638743,0.45492300669983227,0.0,0.99501312335958,50,1149,1538,772025,no_split,wide,individual,1,0.4650845527648926
0,0.0,0.460387432172926,0.3637725894915447,0.38238381420551826,0.3993845603911584,0.4164024511081996,0.43568415625245754,0.45865961834686125,0.4867531581380622,0.5259983629837358,0.5886484457666639,1.3456838645169173,0.9977173913043478,0.46602427471111624,0.0,0.9975135135135135,50,1149,1582,772025,no_split,wide,individual,1,0.4726228713989258
1,1.0,0.4716005060392186,0.3727420143142592,0.3923295247133179,0.4095530437487408,0.4273529767417849,0.44692524094128455,0.4702454230640548,0.4970547046869331,0.5373021016417243,0.6043582201658613,1.2239983629837357,0.9973118279569892,0.46602427471111624,0.0,0.9975135135135135,50,1149,1582,772025,no_split,wide,individual,1,0.4726228713989258
0,0.0,0.44207675863285417,0.3402543386137155,0.35734918304003027,0.3739179371172799,0.39190751812927394,0.41101983613610554,0.4330325508621019,0.4632719896098779,0.5079124455874096,0.5848798153796866,1.4449101652868326,0.9940314136125654,0.4537217405201314,0.0,0.9896605744125326,50,1149,1583,772025,no_split,wide,individual,1,0.4777367115020752
1,1.0,0.46530607146007924,0.3529179371172799,0.3744972867780585,0.3948637886348754,0.41592011492074243,0.43891405120205623,0.4651957731384792,0.495663152369521,0.5384490831746823,0.6138569395430015,1.3590357549445402,0.9853125,0.4537217405201314,0.0,0.9896605744125326,50,1149,1583,772025,no_split,wide,individual,1,0.4777367115020752
0,0.0,0.5748212809473497,0.3786444437642197,0.4202373938983618,0.45654751851576997,0.4931561797861266,0.5312209966121648,0.5742897549025611,0.6294449024264267,0.7061574179371403,0.8325330494603012,1.4376081853097935,0.9957062146892656,0.5725411437399244,0.0,0.9957142857142857,50,1149,1597,772025,no_split,wide,individual,1,0.48528552055358887
1,1.0,0.5703829390034844,0.3821373297769822,0.4172373938983618,0.4511374565353136,0.4859966351523322,0.5243321001166616,0.5676487716237589,0.6202558402587653,0.6982652013779359,0.8258184401057386,1.4436739199509006,0.9957219251336898,0.5725411437399244,0.0,0.9957142857142857,50,1149,1597,772025,no_split,wide,individual,1,0.48528552055358887
0,0.0,0.3996007056595576,0.3144804733669412,0.3339529300514223,0.35043505272867526,0.36683423004433563,0.38375281504004133,0.4038486595441792,0.42658591313370847,0.4560570199271085,0.5044470480074089,1.2239387408320164,0.9998947368421053,0.4077979640958858,0.0,0.9997889182058047,50,1149,1601,772025,no_split,wide,individual,1,0.5009057521820068
1,1.0,0.41603859426997253,0.3345382695282904,0.3530260235462758,0.3683837368692085,0.38399523753643333,0.39973081503394364,0.417532613095657,0.4401230731576128,0.47045759425651906,0.5185131683144681,1.1083785594017017,0.9996825396825397,0.4077979640958858,0.0,0.9997889182058047,50,1149,1601,772025,no_split,wide,individual,1,0.5009057521820068
0,0.0,0.4763101468383348,0.33673664844195067,0.36075507321999606,0.3827462289247176,0.4085556831707972,0.43675011198639324,0.46810627201007077,0.5082644456614256,0.5662886227604559,0.6718035144838166,1.4299534118062125,0.9849473684210527,0.4849570942067558,0.0,0.9826842105263158,50,1149,1614,772025,no_split,wide,individual,1,0.44879841804504395
1,1.0,0.4936040415751769,0.3477488176325014,0.3745903024546397,0.40024441262744515,0.4261014350399794,0.455552325689642,0.4872105980591779,0.5295020043233079,0.5893979013291275,0.6884750424392135,1.445543686695381,0.980421052631579,0.4849570942067558,0.0,0.9826842105263158,50,1149,1614,772025,no_split,wide,individual,1,0.44879841804504395
0,0.0,0.426346252586604,0.36466890559546367,0.37865082121459026,0.3912746292097422,0.40331039659561463,0.4156448193750616,0.42902969897208987,0.44579418958039807,0.4664739587935726,0.5014977396279068,0.7966715818421751,1.0,0.4303136038782189,0.0,1.0,50,1149,161753,772025,no_split,wide,individual,1,0.46138763427734375
1,1.0,0.43426018369710273,0.37180902114154374,0.38655104321462785,0.39847995821965315,0.41092442212781133,0.4233690132161354,0.4372825283532329,0.454930807842943,0.47627462920974223,0.50921215039167,0.9156417698928694,1.0,0.4303136038782189,0.0,1.0,50,1149,161753,772025,no_split,wide,individual,1,0.46138763427734375
0,0.0,0.4650272010642046,0.3565785933963548,0.3773980144544188,0.39648339330546895,0.41526398281671645,0.43720920079612047,0.46255207538733434,0.49432299865303964,0.5380579468571892,0.6067762433026215,1.3521078133660471,0.9980851063829788,0.4695862026360903,0.0,0.9975197889182058,50,1149,1638,772025,no_split,wide,individual,1,0.45618152618408203
1,1.0,0.4740735968534438,0.368118982736392,0.38974303360340984,0.408205285319788,0.42858525598198494,0.4498385456160645,0.47342475997476097,0.5048585163010103,0.5448254999623053,0.6071923970877947,1.3218301700045185,0.9969633507853403,0.4695862026360903,0.0,0.9975197889182058,50,1149,1638,772025,no_split,wide,individual,1,0.45618152618408203
0,0.0,0.39509518943237143,0.3139863810809415,0.32789870909181124,0.34184976960306046,0.3560956305852182,0.37256890522634656,0.3916756810577666,0.4144231548959548,0.4472363321112234,0.5052444350311379,1.1041531689294994,0.9934736842105263,0.4031611261078332,0.0,0.9909762532981531,50,1149,1657,772025,no_split,wide,individual,1,0.45763421058654785
1,1.0,0.4112697396969217,0.32485624079426173,0.3411530600926681,0.3568627939104395,0.37269357467094555,0.3898043292470591,0.40885984571448264,0.4336345629580869,0.46762999242249376,0.5252512238157127,1.1331536365463977,0.9884656084656085,0.4031611261078332,0.0,0.9909762532981531,50,1149,1657,772025,no_split,wide,individual,1,0.45763421058654785
0,0.0,0.4591644363402063,0.37109960952312787,0.3878298148129432,0.4018415910707943,0.4168415910707943,0.4346674322845401,0.4550587646278079,0.4816796191735976,0.5180376366794233,0.5794230230886014,1.4317867160939095,0.9963829787234042,0.4686676019374144,0.0,0.9953439153439153,50,1149,1663,772025,no_split,wide,individual,1,0.4558744430541992
1,1.0,0.47807073421254676,0.3806132877385321,0.4008982781855618,0.4186796191735976,0.43658033652614614,0.4559765495333978,0.4777714775790805,0.5057939696955913,0.5432145323159154,0.6032203311408835,1.1137732711861716,0.9943157894736843,0.4686676019374144,0.0,0.9953439153439153,50,1149,1663,772025,no_split,wide,individual,1,0.4558744430541992
0,0.0,0.5197562685029563,0.3715966693123248,0.400561699082082,0.42709247445872855,0.4517495575019707,0.4818094327790735,0.5156490305123359,0.5595849491526952,0.61827435163027,0.7145067860321821,1.4539525630289287,0.9968817204301075,0.5258086150681498,0.0,0.9966756032171582,50,1149,1761,772025,no_split,wide,individual,1,0.4567687511444092
1,1.0,0.5318285961436899,0.3828772550590079,0.41409571192016353,0.4406507227490072,0.4668114850679794,0.4963111701512135,0.5304377611327704,0.5726556523408115,0.6280965212855223,0.722730224432456,1.4670924744587284,0.9964705882352941,0.5258086150681498,0.0,0.9966756032171582,50,1149,1761,772025,no_split,wide,individual,1,0.4567687511444092
0,0.0,0.4526756792249644,0.31880431861420744,0.34183100270380207,0.3639654757193348,0.38709147927895665,0.413039794997576,0.4449486600325832,0.48597709871238615,0.5432682201224202,0.6368381667219638,1.4320077147330452,0.9850261780104712,0.4608522760836032,0.0,0.9818848167539267,50,1149,1768,772025,no_split,wide,individual,1,0.4540255069732666
1,1.0,0.46902887294224194,0.3293398099711711,0.3548042332432282,0.3782995683298529,0.4047474051896477,0.43195431593179945,0.46537009678585706,0.5059980083345762,0.5627422789824712,0.6562871682245673,1.4318042332432281,0.9787434554973822,0.4608522760836032,0.0,0.9818848167539267,50,1149,1768,772025,no_split,wide,individual,1,0.4540255069732666
0,0.0,0.37567464514110305,0.2874404059137564,0.3029639434690206,0.31790341864047816,0.33275590575861475,0.34983852643918883,0.37165767203223343,0.3966068426907406,0.4313750220490352,0.4977777569496434,1.3269955701459917,0.9843617021276596,0.37935937918365625,0.0,0.9817553191489362,50,1149,1813,772025,no_split,wide,individual,1,0.4534609317779541
1,1.0,0.3830441132262094,0.29156241199519983,0.3080301194761851,0.3237605301059724,0.3404834816601888,0.35835312927241925,0.3805676491138388,0.405798843261713,0.4407945457458349,0.5048451826449358,1.260912525700047,0.9791489361702128,0.37935937918365625,0.0,0.9817553191489362,50,1149,1813,772025,no_split,wide,individual,1,0.4534609317779541
0,0.0,0.38910307536096994,0.301637965501649,0.3191786649576978,0.3346176860649649,0.3505682735235172,0.36854000228838957,0.3880702996206199,0.4127712999105306,0.44657643311826595,0.5042302999896668,1.1020390731557366,0.9956842105263158,0.3896138704984199,0.0,0.9948031496062992,50,1149,1821,772025,no_split,wide,individual,1,0.45284104347229004
1,1.0,0.3901219913157784,0.3078404968690819,0.3234608596540534,0.33728139253208705,0.35214218439225725,0.3683870410837896,0.38776862439668347,0.4125520376350429,0.4471680419242222,0.5005450793971253,1.1351616013055619,0.9939267015706806,0.3896138704984199,0.0,0.9948031496062992,50,1149,1821,772025,no_split,wide,individual,1,0.45284104347229004
0,0.0,0.4413628653176909,0.3361018122775589,0.3583352776577463,0.37839195792777275,0.39757064605868586,0.4182908478969403,0.44375237227196784,0.4731250560356365,0.5127107089141986,0.5721603717411617,1.1905509941897656,0.998848167539267,0.44026520017343335,0.0,0.9992553191489362,50,1149,275,772025,no_split,wide,individual,1,0.45475172996520996
1,1.0,0.43913193507855125,0.3392659994847483,0.3603327449073409,0.3787547753727512,0.39776884941076174,0.41766149722949064,0.4403710674758767,0.46652226363176136,0.5042392998550734,0.565708692303125,1.3615509941897657,0.9996756756756757,0.44026520017343335,0.0,0.9992553191489362,50,1149,275,772025,no_split,wide,individual,1,0.45475172996520996
0,0.0,0.37779354448731156,0.2969191291253726,0.31183275293941476,0.32583485976948634,0.3397688689444584,0.35612013520998215,0.37535740099521614,0.3971960776232246,0.4295509493446377,0.4862262443897971,0.9951269982887773,0.9974468085106383,0.3838058445606791,0.0,0.9962334217506631,50,1149,3286,772025,no_split,wide,individual,1,0.46788644790649414
1,1.0,0.3897863335225474,0.30291568168716687,0.31986414875359026,0.3360288061173389,0.3518819314717546,0.3691269982887772,0.38907887490157284,0.41423078535822283,0.4475994888996964,0.5035789178656302,0.9986591636057255,0.995026455026455,0.3838058445606791,0.0,0.9962334217506631,50,1149,3286,772025,no_split,wide,individual,1,0.46788644790649414
0,0.0,0.451046813909593,0.3450709040810874,0.3654442996176333,0.3842957024744726,0.4045628644141257,0.42590580050810956,0.44885446469250584,0.4784351019213006,0.5213648986139409,0.5928557194080167,1.3848065325013228,0.9987301587301587,0.4581855418346533,0.0,0.9982585751978892,50,1149,3292,772025,no_split,wide,individual,1,0.46988558769226074
1,1.0,0.46528669750747653,0.35415953668175326,0.37645395892407774,0.39714273818017437,0.4178391629498709,0.4413974336059272,0.46681137146346163,0.4974810652637984,0.5371071217312666,0.6081068607135235,1.2303775154536518,0.9977894736842106,0.4581855418346533,0.0,0.9982585751978892,50,1149,3292,772025,no_split,wide,individual,1,0.46988558769226074
0,0.0,0.4488842954413054,0.3572913742607081,0.37732455822345246,0.39509890500132844,0.41259126877309915,0.43132455822345245,0.4505619895369722,0.47555988054016407,0.5096438931551663,0.5641881406677162,1.221019389507899,0.9997894736842106,0.4506549598977221,0.0,0.9995275590551181,50,1149,337788,772025,no_split,wide,individual,1,0.47307705879211426
1,1.0,0.4524163538596025,0.3640258101361428,0.38229165305590634,0.3986023522766181,0.4149277337773368,0.4327071244478681,0.4535329544708487,0.47798946063307396,0.5114471334206336,0.5666388966379504,1.1449768836419245,0.9992670157068063,0.4506549598977221,0.0,0.9995275590551181,50,1149,337788,772025,no_split,wide,individual,1,0.47307705879211426
0,0.0,0.39822227887017275,0.31031011695570787,0.3253796770419956,0.3393339083841115,0.35451729220644645,0.3714228502110673,0.3910823041348639,0.41687287143339957,0.45387084903022296,0.5203786692510048,1.3152859504282404,0.9952941176470588,0.4139236215186691,0.0,0.991021505376344,50,1149,3487,772025,no_split,wide,individual,1,0.46999669075012207
1,1.0,0.42979470841201406,0.3259164734142681,0.3462613358340192,0.36655862921888893,0.3868526255879718,0.407205153692315,0.43046430068415503,0.45939479717592135,0.4973267196161567,0.5621149501894558,1.4197487353581464,0.9867027027027027,0.4139236215186691,0.0,0.991021505376344,50,1149,3487,772025,no_split,wide,individual,1,0.46999669075012207
0,0.0,0.4026457249294084,0.31957250119170405,0.3372114960479582,0.3528535989071622,0.3685541870938179,0.3852831834467733,0.4040651527419296,0.4278180755190275,0.45922997792102693,0.5060549362557559,1.0940777699923079,0.9995811518324608,0.41052079820013615,0.0,0.9993650793650793,50,1149,3580,772025,no_split,wide,individual,1,0.4695580005645752
1,1.0,0.41856432223601314,0.34281573224874035,0.35898890422031643,0.37244029067090006,0.3864354251580578,0.401809020062069,0.41806992461574055,0.4401143305945562,0.46840681324147615,0.5132219108607324,0.9941141547071396,0.999144385026738,0.41052079820013615,0.0,0.9993650793650793,50,1149,3580,772025,no_split,wide,individual,1,0.4695580005645752
0,0.0,0.4710368726417485,0.338664094164988,0.36117887221302003,0.3834274236968166,0.40557270349304975,0.43223529449821546,0.46169309483721993,0.5012238735042235,0.5594508875927328,0.6556208791932221,1.4384362687898833,0.9876923076923076,0.4870566079340805,0.0,0.9841436464088398,50,1149,3625,772025,no_split,wide,individual,1,0.4685072898864746
1,1.0,0.5032543402852161,0.3575034452971392,0.3860367285282742,0.4120508859027992,0.4391436861146995,0.4681066505314192,0.5007508478717678,0.5414739760756977,0.5961889927069638,0.6920041924481587,1.461356057825954,0.9805555555555555,0.4870566079340805,0.0,0.9841436464088398,50,1149,3625,772025,no_split,wide,individual,1,0.4685072898864746
0,0.0,0.5460708512657223,0.4231691769103791,0.44837402411042293,0.4707137255835349,0.4933276780622568,0.5180549869694484,0.5453207780055018,0.5803578688435451,0.6276528149202378,0.7081176284861296,1.5139576163368922,0.9992670157068063,0.5507001027532654,0.0,0.9993175853018372,50,1149,3754,772025,no_split,wide,individual,1,0.47056078910827637
1,1.0,0.5553537187223219,0.43223110007035037,0.45775464734077864,0.4813276780622568,0.5050918232306019,0.5307345196526901,0.558648276305011,0.5925292759761592,0.6355785269527908,0.7089559887139906,1.512631368987615,0.9993684210526316,0.5507001027532654,0.0,0.9993175853018372,50,1149,3754,772025,no_split,wide,individual,1,0.47056078910827637
0,0.0,0.4135039230114451,0.32826056465533743,0.3437401976902872,0.3582249481544904,0.373419749897739,0.390231597675989,0.4107367128441492,0.43674129870964207,0.4719259221369462,0.5262754632518322,1.0470634583691663,0.9906878306878307,0.4171616321038772,0.0,0.9902374670184697,50,1149,3910,772025,no_split,wide,individual,1,0.4685828685760498
1,1.0,0.42080009009582275,0.33190685398668546,0.3493175484042194,0.36475078428588464,0.3800574073794298,0.3970135250834439,0.41724447188903274,0.44248774954016795,0.4786076968655638,0.5384754500839942,1.125231597675989,0.9897894736842106,0.4171616321038772,0.0,0.9902374670184697,50,1149,3910,772025,no_split,wide,individual,1,0.4685828685760498
0,0.0,0.40201818306307446,0.325399478458677,0.33863234969614986,0.3520820940516189,0.365630272501633,0.3813878191292024,0.3996369487414259,0.4230777061751213,0.4545855907345615,0.5079661347067713,0.9058066532880148,0.9931578947368421,0.406124838249854,0.0,0.9917150395778365,50,1149,4222,772025,no_split,wide,individual,1,0.4656026363372803
1,1.0,0.41025322177095525,0.3349620746389055,0.34942285943947937,0.36266192179472856,0.37575464064346253,0.3905107184376262,0.40772182869008383,0.4296271567098577,0.45978254288084164,0.5096298463145044,1.0576821183765484,0.9902645502645503,0.406124838249854,0.0,0.9917150395778365,50,1149,4222,772025,no_split,wide,individual,1,0.4656026363372803
0,0.0,0.44512656053749894,0.32450128278825713,0.34326300405012633,0.362664581249447,0.38141129467909607,0.4048063773134688,0.43175438332206906,0.4708556911696311,0.5254894577488818,0.6183176593158541,1.4025132395260884,0.9757671957671957,0.46005857111950943,0.0,0.9668253968253968,50,1149,4264,772025,no_split,wide,individual,1,0.4515233039855957
1,1.0,0.47499058170152014,0.3423181847121634,0.36712239773275956,0.39007392172566924,0.41432911091077984,0.4402284826844255,0.4721850831724935,0.5101248092407926,0.5613640856232153,0.6550020259503347,1.4078674083823954,0.9578835978835979,0.46005857111950943,0.0,0.9668253968253968,50,1149,4264,772025,no_split,wide,individual,1,0.4515233039855957
0,0.0,0.4332390356904803,0.36738830662305316,0.3798459567391943,0.391448917712794,0.4033793832298791,0.41658192981359443,0.4319714216669322,0.4503762774331176,0.4758230311561031,0.5191421983603963,0.9012648464603429,0.9976595744680851,0.4367683151231044,0.0,0.9971733333333334,50,1149,5281,772025,no_split,wide,individual,1,0.45145201683044434
1,1.0,0.4403164677077746,0.3714049463235416,0.38638145376105343,0.39906042708752004,0.41178548420634936,0.42534066367594503,0.44058192981359445,0.4585671505341665,0.4851518411999786,0.5279254193779287,0.9492096307015886,0.9966844919786096,0.4367683151231044,0.0,0.9971733333333334,50,1149,5281,772025,no_split,wide,individual,1,0.45145201683044434
0,0.0,0.45904863428690984,0.3623706835421035,0.38366775768837813,0.4025999258517761,0.4215957891648843,0.4409600657650626,0.46266933890018663,0.48856895797854716,0.5235979767869623,0.5794849528997723,1.2963600637020325,1.0,0.4621853191546347,0.0,1.0,50,1149,5332,772025,no_split,wide,individual,1,0.4547584056854248
1,1.0,0.4653725957137745,0.37035656358728375,0.39247120705959365,0.41072374983316695,0.42873211536155414,0.44867302302410783,0.46966933890018664,0.4955222330259804,0.5284907572433845,0.5799715549708307,1.1875971971610368,1.0,0.4621853191546347,0.0,1.0,50,1149,5332,772025,no_split,wide,individual,1,0.4547584056854248
0,0.0,0.44654636836629863,0.33427689643216324,0.35453849968038403,0.3733424656372624,0.3942412114811384,0.4162480393258361,0.44232923428682086,0.4756751842324288,0.5210537136162571,0.5948071315711769,1.3213508621370844,0.9963157894736843,0.4560323611450793,0.0,0.9938786279683377,50,1149,5575,772025,no_split,wide,individual,1,0.4500408172607422
1,1.0,0.46556854436184303,0.357538499680384,0.37986313867519206,0.39891830612212675,0.4180917477029066,0.43863649832147356,0.46420352239539175,0.4941153736267427,0.5365786920818125,0.6066596636123504,1.2082668051819785,0.9914285714285714,0.4560323611450793,0.0,0.9938786279683377,50,1149,5575,772025,no_split,wide,individual,1,0.4500408172607422
0,0.0,0.4414089582645396,0.3406734619635601,0.3578207126735876,0.3744860214970277,0.39155771280791507,0.4127970020442887,0.43665178279860334,0.4667179785872156,0.5065224907886857,0.5808981907336312,1.3328719582418,0.9878688524590163,0.4497740067967888,0.0,0.9863072776280324,50,1149,5731,772025,no_split,wide,individual,1,0.4485180377960205
1,1.0,0.4579165806340315,0.352122730434079,0.3721768953746786,0.39032318950210615,0.40931830418894477,0.43048156461442855,0.45460320260446513,0.4843691578519037,0.5278895885927629,0.6015190386381958,1.2735513735322763,0.9847872340425532,0.4497740067967888,0.0,0.9863072776280324,50,1149,5731,772025,no_split,wide,individual,1,0.4485180377960205
0,0.0,0.4240468394009476,0.33032080710815587,0.34770588394833035,0.3639962869201099,0.38028899515451925,0.3988917255258424,0.41993888405304536,0.4473191364893342,0.48472294516935877,0.5493393002231509,1.0875666495150702,0.9987234042553191,0.4369163475560354,0.0,0.9980901856763926,50,1149,5761,772025,no_split,wide,individual,1,0.4503347873687744
1,1.0,0.44971776307538197,0.3502282001859516,0.3707446494452601,0.38976645556695577,0.40794954576194636,0.42672003337353737,0.44876722378803874,0.4766688166406678,0.5151129046602837,0.5787076902474513,1.284005868811991,0.9974603174603175,0.4369163475560354,0.0,0.9980901856763926,50,1149,5761,772025,no_split,wide,individual,1,0.4503347873687744
0,0.0,0.4270720486981395,0.308003853333888,0.3294883721987962,0.34929939226774714,0.368988429201714,0.3917358688348965,0.421293386108942,0.4565618824020195,0.5084379422788733,0.5942729839333405,1.4509944610071321,0.9436458333333333,0.42762631953147284,0.0,0.9539583333333334,50,1149,5803,772025,no_split,wide,individual,1,0.45288538932800293
1,1.0,0.4281805903648062,0.3105866918437706,0.33225964978367056,0.3521647214425832,0.37246700439847286,0.3953043936354055,0.4234000177655547,0.45865749038093456,0.5065897981543636,0.5919628656791953,1.2801152237921036,0.9642708333333333,0.42762631953147284,0.0,0.9539583333333334,50,1149,5803,772025,no_split,wide,individual,1,0.45288538932800293
0,0.0,0.5040498209660225,0.35622695999545384,0.38422914315905754,0.4095885790339294,0.43661235510646373,0.46658436689145405,0.4996682978081081,0.5414425708982429,0.6014897208057643,0.7037293152299703,1.4732432183300381,0.994375,0.5154686058700364,0.0,0.9928795811518325,50,1149,5815,772025,no_split,wide,individual,1,0.45249009132385254
1,1.0,0.527007588509882,0.38247654968471295,0.410592295774378,0.43618998669507225,0.46089217816447065,0.4907066633216578,0.5263557358424933,0.5677545327011997,0.6236483920966928,0.7212437111948274,1.4440018740526657,0.9913684210526316,0.5154686058700364,0.0,0.9928795811518325,50,1149,5815,772025,no_split,wide,individual,1,0.45249009132385254
0,0.0,0.4130885726576563,0.3430519768294736,0.3580500831082885,0.37171817581633754,0.3838481606767618,0.3978015638705183,0.41386617620267674,0.4335938529161066,0.4601066953670253,0.50078275586819,0.9878764100085461,0.9998947368421053,0.42135475422267993,0.0,0.9998412698412699,50,1149,6055,772025,no_split,wide,individual,1,0.450087308883667
1,1.0,0.42970887388945916,0.35373216413987696,0.3706323649199197,0.3855033260561638,0.40011964160609786,0.41539436216118186,0.43367862117680855,0.4537896455035749,0.4801582876591421,0.5216590635511474,0.9196016185155624,0.9997872340425532,0.42135475422267993,0.0,0.9998412698412699,50,1149,6055,772025,no_split,wide,individual,1,0.450087308883667
0,0.0,0.46091059588323124,0.3355763421579213,0.3582954374677879,0.3803183417906097,0.4025662616752833,0.4269350024098337,0.45539041248088313,0.49086664583066575,0.5433363038563899,0.6323901590821234,1.4322877018439155,0.9860540540540541,0.4645172933689206,0.0,0.9840750670241287,50,1149,6109,772025,no_split,wide,individual,1,0.4498872756958008
1,1.0,0.4680664371713278,0.3485118732853656,0.3694612031442146,0.390057550258523,0.4112864163740764,0.43538734588900363,0.46016228222005995,0.4954688646414576,0.5450980310897264,0.6301408705870803,1.4247355267606034,0.9821276595744681,0.4645172933689206,0.0,0.9840750670241287,50,1149,6109,772025,no_split,wide,individual,1,0.4498872756958008
0,0.0,0.3860319871392207,0.3173654152913648,0.3296339273487275,0.34084826042420674,0.3531057914398458,0.3671191639934715,0.38286806181405114,0.40190086716801643,0.4296512860111805,0.4776560425975093,1.0846365636066397,0.9967539267015707,0.39806276154355136,0.0,0.9934725848563969,50,1149,6214,772025,no_split,wide,individual,1,0.4490036964416504
1,1.0,0.4100308756645261,0.327389199811315,0.34409694606353647,0.3587407529842711,0.3739564958072974,0.390642606679954,0.4097722439811152,0.4335041071431429,0.46636600986257837,0.5198535974814278,1.1043725577508867,0.9902083333333334,0.39806276154355136,0.0,0.9934725848563969,50,1149,6214,772025,no_split,wide,individual,1,0.4490036964416504
0,0.0,0.4702450759394812,0.3296950321575068,0.35681014917818815,0.38072448716782215,0.4063828973537494,0.4356939233209334,0.4686924774895614,0.509111317942038,0.5646218104006786,0.654042527235773,1.3559485567754233,0.9936507936507937,0.47354412355852876,0.0,0.9921164021164021,50,1149,6253,772025,no_split,wide,individual,1,0.45307254791259766
1,1.0,0.47684317117757646,0.3422687086466379,0.36678291640579597,0.3903274918119848,0.41570431009598086,0.44226870864663786,0.47382737896041427,0.5112823441840844,0.5682331422425065,0.6570878349585841,1.3682687086466379,0.9905820105820106,0.47354412355852876,0.0,0.9921164021164021,50,1149,6253,772025,no_split,wide,individual,1,0.45307254791259766
0,0.0,0.45194962073780487,0.35860258215758656,0.37741417068835936,0.3943572418440458,0.4108154544116509,0.4295305774768614,0.45116601470575024,0.47792927432513566,0.5129479394838622,0.5749879861455509,1.2923763001732675,0.9983157894736842,0.45452210312487495,0.0,0.997742782152231,50,1149,6262,772025,no_split,wide,individual,1,0.4511692523956299
1,1.0,0.4570811170177718,0.3629497577271292,0.3813763001732675,0.39836859719189216,0.4159474199857858,0.436076234375979,0.45777968019748533,0.4836983048963241,0.521103676476073,0.5760924370341763,1.1977249686887135,0.9971727748691099,0.45452210312487495,0.0,0.997742782152231,50,1149,6262,772025,no_split,wide,individual,1,0.4511692523956299
0,0.0,0.4850894339621163,0.3757669934925956,0.4018625707703335,0.42317882514904415,0.4436707280991419,0.46641715076936335,0.48995652629257963,0.5184810704444035,0.5558930242461031,0.6174834325496306,1.2080421433963568,1.0,0.49485701290948475,0.0,0.9998421052631579,50,1149,6361,772025,no_split,wide,individual,1,0.4538581371307373
1,1.0,0.5046245918568532,0.4068243067578746,0.428309393267945,0.44653212632474054,0.4651026329341877,0.48472155325830457,0.5077164419090716,0.5336014032505008,0.5698641202624345,0.6289345292510069,1.200354793758937,0.9996842105263158,0.49485701290948475,0.0,0.9998421052631579,50,1149,6361,772025,no_split,wide,individual,1,0.4538581371307373
0,0.0,0.40975203466366394,0.33543949763492764,0.35050452911002655,0.3630390969434412,0.37650328973151376,0.39003181058889147,0.40793298554616214,0.4289297015744237,0.457862040351144,0.5079599734439076,1.1229659365737314,0.9962105263157894,0.4133718285811754,0.0,0.9956728232189974,50,1149,6427,772025,no_split,wide,individual,1,0.45188307762145996
1,1.0,0.41701077484745674,0.34081886666527506,0.35605174925201594,0.36966008182869387,0.38450328973151376,0.39987120403481957,0.41707272099886333,0.43821993760534006,0.4679971428722971,0.5161737179007694,0.987051749252016,0.9951322751322751,0.4133718285811754,0.0,0.9956728232189974,50,1149,6427,772025,no_split,wide,individual,1,0.45188307762145996
0,0.0,0.45812657389751976,0.3675247666953681,0.3846489682834556,0.4002393271263514,0.4170782384289844,0.4339975923299443,0.45464895458384597,0.48019713041568424,0.5171454964801544,0.5797495446909157,1.3698039586546014,0.9935106382978723,0.46249177843652683,0.0,0.9933333333333333,50,1149,6583,772025,no_split,wide,individual,1,0.45152950286865234
1,1.0,0.4668803263153147,0.37467696227141656,0.39261001767338227,0.40829854314195263,0.4246093762897513,0.4431393906152822,0.4644323985464951,0.49268357644569805,0.5301616241360251,0.5897495446909156,1.378895238376295,0.9931550802139038,0.46249177843652683,0.0,0.9933333333333333,50,1149,6583,772025,no_split,wide,individual,1,0.45152950286865234
0,0.0,0.44453264097793177,0.33786665079901107,0.3563349614520202,0.37392930648753875,0.3921133170137134,0.41311331907657134,0.43800664983508597,0.46878581857396673,0.5167078579611727,0.5927032272174839,1.3014710258380056,0.9919576719576719,0.44930002320354934,0.0,0.9899465240641712,50,1149,6634,772025,no_split,wide,individual,1,0.4524681568145752
1,1.0,0.45417048396377474,0.34488851274806465,0.3664579119913416,0.3853004736730729,0.40559514304525096,0.4263961069918124,0.4516941285462933,0.4832607161612106,0.5264185704513495,0.598908272375209,1.4643867573789393,0.9878918918918919,0.44930002320354934,0.0,0.9899465240641712,50,1149,6634,772025,no_split,wide,individual,1,0.4524681568145752
0,0.0,0.45065803552206896,0.3643326404884732,0.38083272743494606,0.3956925488282621,0.4113318937647411,0.4283005174440961,0.44816286079083806,0.4738441920043214,0.5063358177511623,0.5657363876634766,1.4763326404884733,0.9985416666666667,0.4594499118819471,0.0,0.9972323759791123,50,1149,6844,772025,no_split,wide,individual,1,0.45110201835632324
1,1.0,0.46828781900810734,0.3762813508315432,0.3947900703899703,0.4123780146411935,0.43005493138263484,0.4480076042394377,0.46965238873206977,0.49486766198146975,0.528832727434946,0.588285139372604,1.0005487455647504,0.9959162303664921,0.4594499118819471,0.0,0.9972323759791123,50,1149,6844,772025,no_split,wide,individual,1,0.45110201835632324
0,0.0,0.4536222003948886,0.3190438933090772,0.34476621812863734,0.3676898531749279,0.3913387761559679,0.41792865922835354,0.44893211360115437,0.48786700494400737,0.5410403246852854,0.6327570477854711,1.3977887452613162,0.9983157894736842,0.47034761014964194,0.0,0.9974869109947644,50,1149,7624,772025,no_split,wide,individual,1,0.4554769992828369
1,1.0,0.48689879688611665,0.33689216840748837,0.3676924150369927,0.39666922375947405,0.425662932203806,0.4541537705040398,0.48845167475297846,0.5295945358610835,0.5858566989256471,0.6787608342435907,1.4176719201404746,0.9966666666666667,0.47034761014964194,0.0,0.9974869109947644,50,1149,7624,772025,no_split,wide,individual,1,0.4554769992828369
0,0.0,0.41168176654269745,0.3148804047938413,0.33214030613549483,0.34978491800085665,0.3664635739660758,0.38606562424873786,0.4074034279139034,0.43523022844269227,0.4737530630667148,0.5431014727713204,1.2775068227275053,0.9947916666666666,0.4196689000505508,0.0,0.9932984293193717,50,1149,7756,772025,no_split,wide,individual,1,0.45237135887145996
1,1.0,0.4277401086479606,0.3255421531138614,0.3456758105235222,0.3644159474843694,0.3817834549205997,0.403379058197792,0.42693255568432326,0.4550005683602392,0.49577467643905765,0.5599781314773753,1.3371818383896865,0.9917894736842106,0.4196689000505508,0.0,0.9932984293193717,50,1149,7756,772025,no_split,wide,individual,1,0.45237135887145996
0,0.0,0.4137922689138246,0.3087392312066603,0.3261541497639668,0.3425804005289275,0.3605762773639269,0.3823959528072525,0.40585032216157146,0.43612668747643235,0.4804090343890189,0.5626305801420403,1.4033344328081157,0.9908510638297873,0.42481639731494264,0.0,0.9856836461126005,50,1149,7768,772025,no_split,wide,individual,1,0.4510793685913086
1,1.0,0.4360192953658085,0.3214781462787047,0.34358085782911235,0.3646237969229403,0.3851102101039118,0.40950037445454257,0.4356237969229403,0.4670295194620743,0.5097392861584932,0.5847390063812956,1.3927077820078355,0.9804324324324324,0.42481639731494264,0.0,0.9856836461126005,50,1149,7768,772025,no_split,wide,individual,1,0.4510793685913086
0,0.0,0.4020718319205582,0.2915053945463361,0.30836415155052427,0.32613544300909153,0.34484206026326897,0.366936469885197,0.3928941961872541,0.4278911564151239,0.47621200642859957,0.5619643208669206,1.4046810973943455,0.9784293193717277,0.41345198898862096,0.0,0.9706806282722513,50,1149,7807,772025,no_split,wide,individual,1,0.4517629146575928
1,1.0,0.42483214605668385,0.3055087877714598,0.3276717805822107,0.34836022246590953,0.36995328497481905,0.39333271887360677,0.421371005013614,0.456160050911966,0.5032389295853293,0.5881438111998898,1.2429445037176379,0.9629319371727749,0.41345198898862096,0.0,0.9706806282722513,50,1149,7807,772025,no_split,wide,individual,1,0.4517629146575928
0,0.0,0.3922706130229893,0.31469663796311836,0.3278638038468721,0.33945800386720526,0.35237112409842725,0.36886855724447104,0.3865962676294895,0.41104046996415317,0.4462060465214408,0.5006705948006068,1.228689289329305,0.9865625,0.3998093786069788,0.0,0.9845669291338582,50,1149,7813,772025,no_split,wide,individual,1,0.4530353546142578
1,1.0,0.4074678071367459,0.3226669725984329,0.3388773923063183,0.3536695284441894,0.36856429431829635,0.3851993342308908,0.40414279433336453,0.42932663938803967,0.46316543015640665,0.5207042867385099,1.1127349719081034,0.9825396825396825,0.3998093786069788,0.0,0.9845669291338582,50,1149,7813,772025,no_split,wide,individual,1,0.4530353546142578
0,0.0,0.4123162723893955,0.33557046932396517,0.3525537351020071,0.3663882964648171,0.38138805011855537,0.3964566872254446,0.4137543487772066,0.4344271035708803,0.4619238398963473,0.5099794011476099,1.2268226524933694,0.9996858638743455,0.41833224097578287,0.0,0.9997905759162303,50,1149,7828,772025,no_split,wide,individual,1,0.4601144790649414
1,1.0,0.42434820956217034,0.3435468011583745,0.362784130246077,0.3785714813185809,0.39318189720753904,0.4093470741379233,0.427017190018372,0.4483739876741008,0.4780549378655292,0.5238226524933693,0.9733162726210685,0.9998952879581152,0.41833224097578287,0.0,0.9997905759162303,50,1149,7828,772025,no_split,wide,individual,1,0.4601144790649414
0,0.0,0.5440798597239529,0.3981708999331264,0.4231751855797379,0.4475268670152746,0.47206772557157506,0.5005418903898264,0.535705652694434,0.5796206360706652,0.6430416306000164,0.7490473644721427,1.4947243309609215,0.9835978835978836,0.5510482924043535,0.0,0.9819148936170212,50,1149,7840,772025,no_split,wide,individual,1,0.4576876163482666
1,1.0,0.5580912537765235,0.4078583598099996,0.43603203962930975,0.4614377996620976,0.48983339829988276,0.5188070770547117,0.5524012345897485,0.5951845390025139,0.6577072160575878,0.7616679508815554,1.520364779867479,0.9802139037433155,0.5510482924043535,0.0,0.9819148936170212,50,1149,7840,772025,no_split,wide,individual,1,0.4576876163482666
0,0.0,0.4468620629968513,0.36070750949072095,0.38114086502402894,0.3975759886836329,0.41468713966969917,0.4324783859902339,0.45157570502621924,0.4753242586532062,0.5037892447225788,0.5525777091915854,0.9995991505688454,1.0,0.45453415723768903,0.0,0.9999476439790576,50,1149,7924,772025,no_split,wide,individual,1,0.4593081474304199
1,1.0,0.4622062514785266,0.38052829712001474,0.4006450980643022,0.4170102078166766,0.4326206869916554,0.4485223452049361,0.466461120563071,0.48701142675982584,0.5154596944116918,0.5619760860449834,0.8844108223274071,0.9998952879581152,0.45453415723768903,0.0,0.9999476439790576,50,1149,7924,772025,no_split,wide,individual,1,0.4593081474304199
0,0.0,0.44379078458300825,0.3483175626252116,0.3692876578675588,0.38815967166346776,0.406734071299502,0.42505406887985486,0.4469230107330928,0.4724655593082751,0.507740048733769,0.562533540993885,1.0815868491890115,1.0,0.4510082979508664,0.0,0.999946949602122,50,1149,7939,772025,no_split,wide,individual,1,0.46030449867248535
1,1.0,0.458264202347277,0.3606354001935815,0.38428590354397285,0.4035774019907551,0.4224334855816968,0.4411002093983851,0.46329771052732543,0.48939867478067556,0.5233449564788438,0.5770878967742012,1.1151329779415478,0.9998936170212765,0.4510082979508664,0.0,0.999946949602122,50,1149,7939,772025,no_split,wide,individual,1,0.46030449867248535
0,0.0,0.4472167164704938,0.3241355467664286,0.34401685161688256,0.36367308957434374,0.3848114985593983,0.4085496613091679,0.43621301750250463,0.4752788080656709,0.5295552178007958,0.6242930389885674,1.400710047136582,0.9812359550561798,0.45961155752661165,0.0,0.9760881542699724,50,1149,8026,772025,no_split,wide,individual,1,0.45843982696533203
1,1.0,0.47153740459682236,0.33637350715823855,0.36160818187314037,0.3860021146045729,0.4096102510191355,0.4358976241861199,0.46774164296954274,0.5053143825394467,0.5612598983013437,0.6516101672011433,1.3022300647743545,0.9711351351351352,0.45961155752661165,0.0,0.9760881542699724,50,1149,8026,772025,no_split,wide,individual,1,0.45843982696533203
0,0.0,0.463111675221069,0.363064940418714,0.3794569018622158,0.3962967670148329,0.41447107306559283,0.4350684409370317,0.4590227770044596,0.48966866118342345,0.5301700106378678,0.6028268571321688,1.180908360758845,0.9905263157894737,0.46727362258949007,0.0,0.9889473684210527,50,1149,808,772025,no_split,wide,individual,1,0.4569082260131836
1,1.0,0.4714355699579111,0.36902173064131605,0.3889264235492224,0.40632936122252644,0.4239778861385659,0.4445651258534487,0.46740755167205394,0.4959222838499354,0.5371181827376036,0.6085677468827444,1.3476784021705563,0.9873684210526316,0.46727362258949007,0.0,0.9889473684210527,50,1149,808,772025,no_split,wide,individual,1,0.4569082260131836
0,0.0,0.4490136596527962,0.3211879860702377,0.342919282264393,0.3637316033053483,0.3848548198094631,0.4092215322401803,0.43987018748390966,0.4792661774184028,0.5351290789621926,0.626392979785845,1.4475666095321575,0.9687958115183246,0.450628759785395,0.0,0.9675718015665796,50,1149,8311,772025,no_split,wide,individual,1,0.4603874683380127
1,1.0,0.45223544793813647,0.32457412857759466,0.34711331390773936,0.3696576622298937,0.39138913842073364,0.41781982061628054,0.4471335444066475,0.4822029346595696,0.5343159861502731,0.6258498964204294,1.4187316033053483,0.9663541666666666,0.450628759785395,0.0,0.9675718015665796,50,1149,8311,772025,no_split,wide,individual,1,0.4603874683380127
0,0.0,0.45487494030584724,0.362918547441873,0.3797177017956657,0.3947360304080036,0.4100408933292455,0.4281925947296629,0.4486514667722412,0.4767396291183558,0.515280559144608,0.5828727673620926,1.2911427343408195,0.9913541666666666,0.46244666814976254,0.0,0.9901587301587301,50,1149,833,772025,no_split,wide,individual,1,0.4560539722442627
1,1.0,0.4702626452789655,0.37124719339807627,0.3899136038891174,0.40649446211603957,0.4252112738635374,0.44526893086568914,0.46832336107474887,0.4970657472774796,0.5365275344792984,0.6011458524663166,1.3205724764817328,0.9889247311827957,0.46244666814976254,0.0,0.9901587301587301,50,1149,833,772025,no_split,wide,individual,1,0.4560539722442627
0,0.0,0.5676211738961464,0.3586480652087715,0.3940697628617133,0.4289487145784236,0.46505605721947485,0.5080646939240772,0.557760561922288,0.6229216437418461,0.7207345302259079,0.8646852631125644,1.4577462312754927,0.9733695652173913,0.5759302438138901,0.0,0.9694594594594594,50,1149,837,772025,no_split,wide,individual,1,0.4587254524230957
1,1.0,0.5841499688938088,0.3765192136277529,0.41504225060956274,0.4535460353895218,0.4909742373624868,0.5333288004218437,0.5806558553076737,0.64343768028415,0.7254338678937515,0.8693700106075677,1.4455874184391,0.9655913978494624,0.5759302438138901,0.0,0.9694594594594594,50,1149,837,772025,no_split,wide,individual,1,0.4587254524230957
0,0.0,0.3837104162677333,0.30624974764310303,0.3212440541636889,0.3349807334333293,0.34848011226899483,0.3627546009746092,0.3808013003700727,0.40226819942978354,0.43377249996212586,0.48818472401015267,1.0644394455027075,0.9979057591623036,0.3935517218615607,0.0,0.9968421052631579,50,1149,8446,772025,no_split,wide,individual,1,0.45666980743408203
1,1.0,0.403497168255323,0.3176772348102787,0.3349724553483012,0.35054836827228497,0.36669443597184515,0.3835471535327606,0.40351642885221056,0.42780083394033525,0.4607323645637874,0.5154868163953714,1.0068316376685955,0.9957671957671957,0.3935517218615607,0.0,0.9968421052631579,50,1149,8446,772025,no_split,wide,individual,1,0.45666980743408203
0,0.0,0.42288326338053606,0.3289090509673681,0.3447624868555608,0.36039165593317274,0.376501152354871,0.3953004370298612,0.41683331714307686,0.4458354522208835,0.4854348366526684,0.5537333481358067,1.237114770501811,0.9895238095238095,0.42957482704146144,0.0,0.9854255319148936,50,1149,845,772025,no_split,wide,individual,1,0.45754384994506836
1,1.0,0.4363379582281721,0.3351873624226841,0.35387671949678373,0.3714197349005977,0.3898072930042189,0.41024528828801826,0.43307940988034743,0.462917452079231,0.5034605062646001,0.5727426858410646,1.3648463846906576,0.9812834224598931,0.42957482704146144,0.0,0.9854255319148936,50,1149,845,772025,no_split,wide,individual,1,0.45754384994506836
0,0.0,0.49249532269441887,0.366239656608641,0.3900514349323795,0.4115580660862195,0.43327184427613075,0.4567427186605021,0.4850799032996765,0.5231071934856536,0.5743509659558828,0.663272759950433,1.42364630619264,0.9941361256544503,0.498357325449999,0.0,0.9934736842105263,50,1149,8521,772025,no_split,wide,individual,1,0.46161842346191406
1,1.0,0.5042813599807703,0.37664268568282316,0.40025139683521227,0.42458851833950906,0.4480385125933725,0.4732841628766288,0.5022435186745267,0.5381071934856536,0.5908469991871917,0.6725477409001609,1.3919309669949806,0.9928042328042328,0.498357325449999,0.0,0.9934736842105263,50,1149,8521,772025,no_split,wide,individual,1,0.46161842346191406
0,0.0,0.5555828662344675,0.41043050249219437,0.43840153213176725,0.464509633456105,0.49158796424082374,0.5198521915360159,0.5546704919927241,0.59647627583293,0.6542853762458213,0.7453557337038056,1.4697163302138452,0.9968478260869565,0.5590165852620504,0.0,0.9969354838709678,50,1149,8704,772025,no_split,wide,individual,1,0.46422624588012695
1,1.0,0.5623772464379827,0.4173477855763139,0.4461573584932488,0.4721575088188873,0.4972474096642255,0.5261567571906944,0.5598365118549655,0.6022500747822386,0.6579762356232168,0.7507745918152284,1.4737163302138452,0.9970212765957447,0.5590165852620504,0.0,0.9969354838709678,50,1149,8704,772025,no_split,wide,individual,1,0.46422624588012695
0,0.0,0.44039520289669126,0.33150941933318445,0.3597501177128772,0.38233745847109124,0.40363604149151006,0.4260949269465586,0.4497718424947805,0.47632509943927076,0.5110803503925623,0.5704526818150849,1.048700079876532,1.0,0.44698124190800753,0.0,1.0,50,1149,8755,772025,no_split,wide,individual,1,0.45938682556152344
1,1.0,0.4536764417869147,0.35459799722267027,0.37840348252154915,0.39819997780428146,0.41851982457492215,0.438449217498495,0.4612891173276404,0.48722379226657503,0.5201945783651302,0.5727481401643503,1.0447838446537467,1.0,0.44698124190800753,0.0,1.0,50,1149,8755,772025,no_split,wide,individual,1,0.45938682556152344
0,0.0,0.44787905971690917,0.3436839245340478,0.3625791722576459,0.3796899593559301,0.39854648108645657,0.41916412087133703,0.44313062371707934,0.47453423776096637,0.51786764271474,0.5889526464490669,1.2996030825681248,0.988125,0.45073244513357585,0.0,0.9866666666666667,50,1149,8785,772025,no_split,wide,individual,1,0.45479369163513184
1,1.0,0.4535858305502425,0.34752272098354114,0.36714776808573646,0.3864748081844335,0.40486500157348954,0.4255920398501537,0.4500264332843868,0.4803539703782638,0.5242951210733483,0.5989038993093905,1.1435993917648022,0.9852083333333334,0.45073244513357585,0.0,0.9866666666666667,50,1149,8785,772025,no_split,wide,individual,1,0.45479369163513184
0,0.0,0.41364601868423034,0.3036240936304611,0.3240477207650042,0.34184594627059806,0.36123626558487787,0.38368655575782334,0.41011423134538133,0.44191975200110756,0.48860741561605603,0.5617902084193099,1.4107645848396666,0.9958730158730159,0.4203858724447737,0.0,0.9946949602122016,50,1149,8788,772025,no_split,wide,individual,1,0.45481014251708984
1,1.0,0.42716157649127745,0.31456403802859007,0.33549804579444775,0.3552980539444246,0.3760933402773122,0.3983717770678208,0.42506935157511794,0.4572175613082027,0.5038148572067639,0.5748015275959006,1.296687366086138,0.9935106382978723,0.4203858724447737,0.0,0.9946949602122016,50,1149,8788,772025,no_split,wide,individual,1,0.45481014251708984
0,0.0,0.46597064991543863,0.35171857682621355,0.37181136174595686,0.3902363558883667,0.40909976549007104,0.4312763227043848,0.4573122499325696,0.4923470560472763,0.5411407074757058,0.6263871613168093,1.420468638364389,0.9748148148148148,0.47290158428445817,0.0,0.9740425531914894,50,1149,916,772025,no_split,wide,individual,1,0.4523007869720459
1,1.0,0.47990664629378793,0.3606901205458958,0.3820693267681943,0.40206612040336764,0.42251200124730554,0.44631244365301587,0.47455244987490003,0.5094501287404712,0.5594590294356515,0.6471702055255639,1.4389503927120055,0.9732620320855615,0.47290158428445817,0.0,0.9740425531914894,50,1149,916,772025,no_split,wide,individual,1,0.4523007869720459
0,0.0,0.41217979768122287,0.31879640233731116,0.33488323750403753,0.34965565048086356,0.36583926932720146,0.38289110921177805,0.40455407170016283,0.43338319574376094,0.47354945627460077,0.541580128011813,1.4029773803846788,0.9872631578947368,0.4197470249225546,0.0,0.9834120734908136,50,1149,985,772025,no_split,wide,individual,1,0.44843363761901855
1,1.0,0.42727463317309394,0.3287858826271314,0.3476795241081367,0.3653566087604952,0.3834630504104985,0.40184408166782626,0.42499711673710794,0.4535261007151668,0.4926922703661666,0.5556916470515433,1.0998211060199838,0.9795811518324608,0.4197470249225546,0.0,0.9834120734908136,50,1149,985,772025,no_split,wide,individual,1,0.44843363761901855
0,0.0,0.44377584293905914,0.3412381916320773,0.3588916182278014,0.37689161822780143,0.394318856310819,0.41369628001615916,0.4376700082211288,0.46723885586434777,0.5097397258531441,0.5840652815819904,1.2826961433446833,0.9955121951219512,0.45957223489885807,0.0,0.991356783919598,50,1149,275,772025,no_split,narrow,individual,1,0.44664788246154785
1,1.0,0.4763507859442405,0.3561175112346887,0.3795213905813156,0.4011525186038178,0.4238087715253523,0.4494196853231025,0.476696252681864,0.5104604453342017,0.5557064208014217,0.6333323231998093,1.4724922651403762,0.9869430051813471,0.45957223489885807,0.0,0.991356783919598,50,1149,275,772025,no_split,narrow,individual,1,0.44664788246154785
0,0.0,0.465131380911506,0.3667698280106283,0.38412022930158163,0.3993700289180957,0.41663498777817426,0.43586187829889944,0.45816665438629073,0.48818623086108837,0.5287568811271619,0.6018846776032114,1.234346437424682,0.992,0.4736397936099188,0.0,0.9881313131313131,50,1149,808,772025,no_split,narrow,individual,1,0.45038843154907227
1,1.0,0.4832460660113524,0.37970858387176964,0.4004183444845325,0.4181665737849239,0.4381496494931416,0.45830606803346663,0.48090694612553636,0.510158490792039,0.5497355460095017,0.6205258262624468,1.4004231486433243,0.983763440860215,0.4736397936099188,0.0,0.9881313131313131,50,1149,808,772025,no_split,narrow,individual,1,0.45038843154907227
0,0.0,0.4730290434247226,0.35021358100307953,0.3725843759548708,0.3928366581071717,0.4139701355083747,0.43837164469173096,0.46665155144723164,0.502558763952508,0.5542207173446659,0.6442809841388616,1.4525664852637992,0.997,0.4895940967580559,0.0,0.9957333333333334,50,1149,833,772025,no_split,narrow,individual,1,0.4570274353027344
1,1.0,0.5085255862818655,0.37298022486571597,0.4006943498217767,0.42621199213454514,0.45195197391931147,0.47941217741813685,0.5106515514472316,0.5479508984499613,0.5984600220880519,0.6813389669504994,1.346374153530298,0.9942857142857143,0.4895940967580559,0.0,0.9957333333333334,50,1149,833,772025,no_split,narrow,individual,1,0.4570274353027344
0,0.0,0.5781080988772171,0.354359004615392,0.38986214688948356,0.42534962248277175,0.46575195227583666,0.5114552573732133,0.5684477413984309,0.6414718721370889,0.7474440802306631,0.9092697681700876,1.4468540147162885,0.9653403141361256,0.5933410826134319,0.0,0.9557446808510638,50,1149,837,772025,no_split,narrow,individual,1,0.45404958724975586
1,1.0,0.6090681090654158,0.3797717101446603,0.42422613669303416,0.46445487413594555,0.505839583668305,0.553890798907053,0.6063430120025247,0.674740680680019,0.7717347076240662,0.9232955949925651,1.437295594992565,0.9458378378378378,0.5933410826134319,0.0,0.9557446808510638,50,1149,837,772025,no_split,narrow,individual,1,0.45404958724975586
0,0.0,0.42414280891395567,0.33082252192303674,0.34690731849276274,0.3622642174253774,0.3778617447791889,0.3961045439302274,0.4173908076752819,0.4464987332538244,0.48498883745297383,0.5542619788213646,1.2657695207331008,0.9902083333333334,0.43477225744336745,0.0,0.9870588235294118,50,1149,845,772025,no_split,narrow,individual,1,0.45076537132263184
1,1.0,0.44598574160626336,0.34132937855840845,0.3614428229680486,0.3799293271729048,0.39873516752727994,0.41969665075578044,0.44525055070164055,0.47577643220223026,0.5172094892838933,0.5847433747098999,1.2493908076752818,0.9837362637362638,0.43477225744336745,0.0,0.9870588235294118,50,1149,845,772025,no_split,narrow,individual,1,0.45076537132263184
0,0.0,0.4553417602699856,0.34442353411121307,0.3639758249185148,0.38125912868274714,0.39910637443620245,0.41991193589150083,0.44425733860341976,0.47769610241162774,0.5262718630355854,0.6112996678787183,1.4352591286827472,0.9948603351955307,0.47841019113972344,0.0,0.9860655737704918,50,1149,916,772025,no_split,narrow,individual,1,0.44420814514160156
1,1.0,0.5004917372663706,0.36963843851158407,0.39554429189234813,0.4200027538083103,0.44512642685966264,0.47230103190076517,0.5026831690088466,0.5378911273432864,0.5862629246881848,0.6681077017359169,1.4359872483955538,0.9776470588235294,0.47841019113972344,0.0,0.9860655737704918,50,1149,916,772025,no_split,narrow,individual,1,0.44420814514160156
0,0.0,0.41404638800756666,0.31999541614754967,0.33555599697346444,0.35039655403899617,0.366315509734157,0.38347580485642013,0.405594118050216,0.43519577506456286,0.4739723819154094,0.5470241799382543,1.2969240448386368,0.9892655367231639,0.43387003046772005,0.0,0.9792953929539295,50,1149,985,772025,no_split,narrow,individual,1,0.4433107376098633
1,1.0,0.45214495086067397,0.33695934981435793,0.35843827885832974,0.37956779766903936,0.4012067572086124,0.42389593367712475,0.45216465525107513,0.48555118809771375,0.531397123463946,0.6025976759656707,1.3470241799382543,0.9701041666666667,0.43387003046772005,0.0,0.9792953929539295,50,1149,985,772025,no_split,narrow,individual,1,0.4433107376098633
0,0.0,0.40045108068695584,0.31363652719473123,0.3275681275877936,0.3404433463937777,0.354986142084617,0.3705893126983769,0.38933948487429393,0.4161401625837866,0.45504270877592307,0.5246551691012493,1.3014295745884241,0.9940909090909091,0.4381869814046592,0.0,0.9749473684210527,50,1149,1108,772025,no_split,narrow,individual,1,0.43857264518737793
1,1.0,0.47074344476895225,0.34349995770843006,0.3694535313420313,0.39424596633979103,0.41848077102062553,0.44493964693995686,0.4740171388477237,0.5111209649466477,0.5582934867791766,0.6331637061977765,1.3272016108070694,0.9584313725490196,0.4381869814046592,0.0,0.9749473684210527,50,1149,1108,772025,no_split,narrow,individual,1,0.43857264518737793
0,0.0,0.444946811126277,0.32244110890386374,0.3418763686804037,0.3605308604147401,0.3812417261478159,0.4038794845099218,0.43346202351794516,0.4710899949420015,0.5229967761784037,0.6176498284894723,1.4058763686804037,0.9807035175879397,0.46474131336721136,0.0,0.9715479115479115,50,1149,1507,772025,no_split,narrow,individual,1,0.43790364265441895
1,1.0,0.48367932272272074,0.3414046716068458,0.3682421391103203,0.3933376020859953,0.4198801076758254,0.4497390897082883,0.4848573383039015,0.5243532922087603,0.5807828481561048,0.6663046667257589,1.4049806033823895,0.9627884615384615,0.46474131336721136,0.0,0.9715479115479115,50,1149,1507,772025,no_split,narrow,individual,1,0.43790364265441895
0,0.0,0.45593061112300437,0.3429872825250741,0.3644317605771829,0.38368145695662004,0.4050024152132604,0.42728714692043257,0.45321512986965784,0.48577454693781064,0.5323925859082829,0.6044854217580218,1.3976437435518305,0.9930107526881721,0.4609529181657336,0.0,0.9918324607329843,50,1149,1538,772025,no_split,narrow,individual,1,0.4392533302307129
1,1.0,0.46571898505322157,0.3592226850790801,0.37869201674077824,0.39825569141963346,0.4165655024514813,0.437237251174742,0.46342331825023364,0.4929884875143702,0.5356170130828203,0.6102556914196334,1.3891346988151545,0.9907142857142858,0.4609529181657336,0.0,0.9918324607329843,50,1149,1538,772025,no_split,narrow,individual,1,0.4392533302307129
0,0.0,0.4594594648006115,0.3609482473280469,0.3774328926515961,0.39174373192728573,0.40786406073734305,0.42682157141214744,0.4491883577182798,0.47709379958564785,0.5218587844228464,0.599263198061781,1.4864837277793055,0.9973404255319149,0.4902968476630693,0.0,0.9890163934426229,50,1149,1582,772025,no_split,narrow,individual,1,0.4357576370239258
1,1.0,0.522866667764991,0.39551856706706934,0.42265593423713665,0.4465357543979662,0.471015580277665,0.49566354649916466,0.5261316228387005,0.5608677963853599,0.609926560006015,0.6855740830759554,1.4396660167000488,0.9802247191011236,0.4902968476630693,0.0,0.9890163934426229,50,1149,1582,772025,no_split,narrow,individual,1,0.4357576370239258
0,0.0,0.4324533365784963,0.3367019439083227,0.34957144876542157,0.36205840034900805,0.3750642265241134,0.3927789528845279,0.4145789999412333,0.4451146960870921,0.49090469014417454,0.5814184991379299,1.4236176492065533,0.9880402010050251,0.47164965879106285,0.0,0.9583959899749374,50,1149,1583,772025,no_split,narrow,individual,1,0.43455028533935547
1,1.0,0.5106499993925666,0.3763963079958879,0.40682356610931614,0.43269534057025577,0.45775868206510195,0.4844055847200199,0.5157911400296465,0.5503997682208692,0.5966239730035732,0.6765353804154246,1.4395901595989202,0.9289,0.47164965879106285,0.0,0.9583959899749374,50,1149,1583,772025,no_split,narrow,individual,1,0.43455028533935547
0,0.0,0.5498016588468069,0.3945671142137576,0.41985660217553994,0.44425327297804484,0.4685880029775379,0.4994501477452534,0.5364497274541067,0.5860512571160666,0.6569764099682078,0.7777150507125526,1.5068317878551256,0.9812021857923497,0.5675168531060996,0.0,0.9743956043956044,50,1149,1597,772025,no_split,narrow,individual,1,0.43595147132873535
1,1.0,0.5854277953682571,0.4142384193344087,0.446373913575348,0.47758350396294935,0.5067937204515466,0.5394985656327953,0.5797005193103641,0.6324159470883133,0.7006367599530556,0.8192291651405714,1.4979504895243585,0.9675138121546961,0.5675168531060996,0.0,0.9743956043956044,50,1149,1597,772025,no_split,narrow,individual,1,0.43595147132873535
0,0.0,0.411181882167621,0.3143916219052796,0.33111083753472903,0.346750599854444,0.36269999254605684,0.3811382354694085,0.40239138512520733,0.4314657411978034,0.47260118934763334,0.5470740896071536,1.2573895060093678,0.9924590163934426,0.43432632719494346,0.0,0.9839466666666666,50,1149,1601,772025,no_split,narrow,individual,1,0.4382364749908447
1,1.0,0.4563858763616101,0.3322467222001741,0.3571638671424145,0.3797243521059474,0.4020322815600313,0.42654605651394817,0.4562859972702626,0.4926673013488978,0.5407320325349108,0.6195609210894759,1.3851823108923462,0.9758333333333333,0.43432632719494346,0.0,0.9839466666666666,50,1149,1601,772025,no_split,narrow,individual,1,0.4382364749908447
0,0.0,0.4853985706592874,0.3504355623487542,0.3711053821404508,0.39165514338832824,0.4138444326377727,0.4383266557612275,0.4697179256746947,0.5124840863355117,0.5750238726332012,0.6881649844451031,1.4547831752801765,0.9902970297029703,0.5120164435433501,0.0,0.9825806451612903,50,1149,1614,772025,no_split,narrow,individual,1,0.4398775100708008
1,1.0,0.5436447395585302,0.3829959151749432,0.4178909155136662,0.44763486393744756,0.4776548328663242,0.5102209830404134,0.545214013900426,0.5897625598163244,0.6519666046792918,0.7449110729339079,1.4296348814884465,0.9734117647058823,0.5120164435433501,0.0,0.9825806451612903,50,1149,1614,772025,no_split,narrow,individual,1,0.4398775100708008
0,0.0,0.4786010055150524,0.3362206072903738,0.36364857552327673,0.38948450760657866,0.4154365151364896,0.44263593072392016,0.47596782423670714,0.5151943564899216,0.5720832869426793,0.6648205881957374,1.4190247232965745,0.9995580110497237,0.5000619543373844,0.0,0.999,50,1149,1638,772025,no_split,narrow,individual,1,0.4427464008331299
1,1.0,0.5195817118089529,0.36503920194662576,0.39771049580080936,0.4281909650845796,0.4591044191218702,0.48791381046662685,0.5241036139625599,0.5679666092421611,0.6230488629099358,0.7145288748438332,1.4209738606539941,0.9984924623115577,0.5000619543373844,0.0,0.999,50,1149,1638,772025,no_split,narrow,individual,1,0.4427464008331299
0,0.0,0.414851677754919,0.306090550507455,0.3246974618915772,0.3412007051497903,0.3596954945771799,0.38170551945181797,0.4064773073934429,0.43787478302189403,0.4826979166922672,0.5632143754800225,1.2594338722649672,0.988265306122449,0.4294156611973525,0.0,0.9808086253369273,50,1149,1657,772025,no_split,narrow,individual,1,0.4346792697906494
1,1.0,0.4457273226528782,0.32006060770457423,0.34282751830607416,0.36535146506862776,0.38862607767677426,0.41375523509694534,0.4444831128489026,0.480205974309122,0.5297254565217894,0.61307683950975,1.3140668873479522,0.9724571428571429,0.4294156611973525,0.0,0.9808086253369273,50,1149,1657,772025,no_split,narrow,individual,1,0.4346792697906494
0,0.0,0.4529290370485263,0.35898831277741117,0.37551558101520405,0.3908590374687649,0.40710184480163647,0.4244014670496833,0.44621697940638466,0.4721598977994383,0.5115037609701434,0.585878929821033,1.4191744658222232,0.9976410256410256,0.47665945537470095,0.0,0.9935532994923858,50,1149,1663,772025,no_split,narrow,individual,1,0.4374580383300781
1,1.0,0.4999128803676862,0.38742575159772547,0.41190155168191184,0.4329136829305073,0.4533609012794627,0.47603289464364346,0.5022293080474518,0.5321599276604098,0.5744731231323599,0.6438936602753071,1.2851141022380093,0.9895477386934673,0.47665945537470095,0.0,0.9935532994923858,50,1149,1663,772025,no_split,narrow,individual,1,0.4374580383300781
0,0.0,0.5144222718449917,0.3701578113586776,0.3973359341669829,0.42222621731952875,0.4476290134952388,0.4743601738498141,0.5067250749600862,0.5500746798848882,0.6080220643325112,0.7157964881779952,1.4773374487271003,0.9958011049723757,0.5243896199112902,0.0,0.994475138121547,50,1149,1761,772025,no_split,narrow,individual,1,0.439166784286499
1,1.0,0.5343569679775885,0.3884013271730298,0.41782893763608625,0.4442561738721408,0.4693283660963392,0.498038744003954,0.5317764159588907,0.5727808500399426,0.6307860732542443,0.7245334146978157,1.4582532821020555,0.9931491712707182,0.5243896199112902,0.0,0.994475138121547,50,1149,1761,772025,no_split,narrow,individual,1,0.439166784286499
0,0.0,0.45376643652443827,0.32747494377279934,0.34709941320796256,0.36746231584697975,0.38907370010097964,0.41348414108668574,0.4428729659244098,0.480370972451105,0.5349145229377443,0.6310573903737932,1.4245748296961533,0.9806521739130435,0.4694213760073994,0.0,0.9722702702702702,50,1149,1768,772025,no_split,narrow,individual,1,0.43700575828552246
1,1.0,0.4849079828077482,0.34266078463978156,0.3688582326011792,0.3935687912418059,0.41934699454952545,0.44816276176829173,0.4824137930404569,0.522677453260435,0.5813729674751456,0.6771999408655376,1.3880528691302012,0.9639784946236559,0.4694213760073994,0.0,0.9722702702702702,50,1149,1768,772025,no_split,narrow,individual,1,0.43700575828552246
0,0.0,0.3753316375070376,0.2819236824664435,0.29667227979381516,0.31142524517849385,0.32653149383624036,0.3444230803612539,0.3654622263740029,0.3917605959245558,0.4324751139981331,0.5094128161597844,1.2253198642461989,0.9844692737430167,0.39689443797308477,0.0,0.9661497326203209,50,1149,1813,772025,no_split,narrow,individual,1,0.4390428066253662
1,1.0,0.41668798301627696,0.2968667200803895,0.31986110303596255,0.34088157555700893,0.3644241627698739,0.3889132371566139,0.4182883094629849,0.4506891937032456,0.49743467163234667,0.5721268220639276,1.2781368245231,0.9493333333333334,0.39689443797308477,0.0,0.9661497326203209,50,1149,1813,772025,no_split,narrow,individual,1,0.4390428066253662
0,0.0,0.3920282739776736,0.2992616079591656,0.31445026187072017,0.3288186652612658,0.3436563416888733,0.3609826111118336,0.3826497623807201,0.41088242541982595,0.451186374226851,0.5245662456350261,1.2760600638036597,0.9911219512195122,0.4136819491769009,0.0,0.9781188118811881,50,1149,1821,772025,no_split,narrow,individual,1,0.4412062168121338
1,1.0,0.43598849900525044,0.32088255565722806,0.3435625756822369,0.36605710613829356,0.3883607573434013,0.41147638976708745,0.4385884150354289,0.46987073133773183,0.5137426028305545,0.583825557546077,1.214354762462014,0.9647236180904523,0.4136819491769009,0.0,0.9781188118811881,50,1149,1821,772025,no_split,narrow,individual,1,0.4412062168121338
0,0.0,0.38883379882232333,0.30671389010661954,0.32066655648978837,0.3333190979626284,0.3470634403133155,0.3631868244980837,0.3830239805614395,0.4061057076597682,0.44152599695765754,0.5052233439915478,1.2313175859941112,0.992707182320442,0.40306406918790466,0.0,0.9873404255319149,50,1149,3286,772025,no_split,narrow,individual,1,0.43706202507019043
1,1.0,0.4162726791169826,0.3228591989506275,0.34066249981598606,0.35791495484858893,0.3757034260137893,0.3941044653451237,0.41667531195388824,0.4432722243059694,0.47904511433620717,0.5364193479861962,1.249639564172351,0.9823589743589743,0.40306406918790466,0.0,0.9873404255319149,50,1149,3286,772025,no_split,narrow,individual,1,0.43706202507019043
0,0.0,0.47711552258602874,0.35016844285393794,0.373054314399763,0.3937977985086042,0.415061475717771,0.4394498621350912,0.4683435800393106,0.5062338612353006,0.5607816039437697,0.6515232998496794,1.3890622576993188,0.9961363636363636,0.4998092326259888,0.0,0.994010989010989,50,1149,3292,772025,no_split,narrow,individual,1,0.4413738250732422
1,1.0,0.5210544079825471,0.3740105583808028,0.40316463146423787,0.43104522055062156,0.4584960084883144,0.48865342973948545,0.5212262831287626,0.5642338612353005,0.6222237482398415,0.7083782780737686,1.4182281127827587,0.9920212765957447,0.4998092326259888,0.0,0.994010989010989,50,1149,3292,772025,no_split,narrow,individual,1,0.4413738250732422
0,0.0,0.3991955530922488,0.3015123338476865,0.31816349639586716,0.3327386952410394,0.348847745647069,0.3667469093108179,0.3895496001947308,0.41730440633371074,0.457990510465505,0.5371938135919568,1.2255202574153103,0.9958288770053476,0.43292929793564067,0.0,0.9893506493506493,50,1149,3487,772025,no_split,narrow,individual,1,0.43877506256103516
1,1.0,0.4647889458432886,0.33459361436386154,0.3621114580974314,0.3851083830297429,0.41035168082105383,0.4367358523839719,0.46697403036686097,0.5020266441749418,0.5521503817891575,0.6327635392347513,1.3069693057079967,0.9832323232323232,0.43292929793564067,0.0,0.9893506493506493,50,1149,3487,772025,no_split,narrow,individual,1,0.43877506256103516
0,0.0,0.4059867727037724,0.33470703715305644,0.3473322840875749,0.3585197562230872,0.37036283183742014,0.38339490502348306,0.3997171764772652,0.41988464981704304,0.4506777639780787,0.502891471973516,1.3102206634004576,0.9930348258706467,0.4250364693979664,0.0,0.986243654822335,50,1149,3580,772025,no_split,narrow,individual,1,0.44306063652038574
1,1.0,0.4448757908255985,0.3497010389295449,0.36788743708030713,0.385038106007116,0.40370181381842846,0.4238001195497158,0.445473084537267,0.47171065424993863,0.508802848632251,0.5696037647596379,1.2038888648414594,0.9791709844559585,0.4250364693979664,0.0,0.986243654822335,50,1149,3580,772025,no_split,narrow,individual,1,0.44306063652038574
0,0.0,0.4888582861907242,0.35308018129119983,0.3741770084269079,0.39429482283881007,0.4167864956624395,0.4439781867829169,0.474275074519728,0.5173355693373678,0.5822773759707011,0.6853318527527372,1.4953659468549534,0.9526881720430107,0.4979008317856865,0.0,0.9398895027624309,50,1149,3625,772025,no_split,narrow,individual,1,0.4469492435455322
1,1.0,0.5074571583803625,0.3645835140296603,0.3908713309075908,0.4144792190593298,0.44084724932398744,0.4707358752191101,0.504197683631574,0.5454899878560912,0.6056380440983539,0.7003120011564118,1.4814749609882722,0.9263636363636364,0.4979008317856865,0.0,0.9398895027624309,50,1149,3625,772025,no_split,narrow,individual,1,0.4469492435455322
0,0.0,0.5390154435189378,0.39719519875228243,0.4260433907195128,0.45202919780167816,0.4785864640985498,0.5063006932726473,0.5388443479039169,0.5792524810258712,0.6319280753841762,0.7263476665588482,1.3727746055833976,0.999438202247191,0.5526155175118126,0.0,0.9992411924119241,50,1149,3754,772025,no_split,narrow,individual,1,0.4695291519165039
1,1.0,0.5652899320182613,0.4145878995567665,0.44708521814918895,0.47491246434686407,0.50261534280853,0.5353461193844546,0.5693678699121748,0.6124327381803306,0.6654799725171704,0.7552038462481498,1.413171675226529,0.9990575916230366,0.5526155175118126,0.0,0.9992411924119241,50,1149,3754,772025,no_split,narrow,individual,1,0.4695291519165039
0,0.0,0.40751921464486157,0.3215637708880646,0.33769308811522886,0.35269395433478584,0.36723014628866407,0.38452762559216985,0.4033977467596977,0.4287696801695928,0.4649280340653834,0.5234293278645633,1.1347967421432401,0.9993617021276596,0.42222785867528817,0.0,0.997720207253886,50,1149,3910,772025,no_split,narrow,individual,1,0.46709418296813965
1,1.0,0.43619364189609733,0.34414629769120586,0.36448144813524,0.3819741624356455,0.40028877510653493,0.418070159132296,0.4385241881967845,0.463740703468237,0.4970293426587944,0.5513334624603763,1.249139421104544,0.9961616161616161,0.42222785867528817,0.0,0.997720207253886,50,1149,3910,772025,no_split,narrow,individual,1,0.46709418296813965
0,0.0,0.39600554458331166,0.3306798196257289,0.3415968855578297,0.35223251883075873,0.3631272306688962,0.3754661388489351,0.3899437962022318,0.40974729858170905,0.4366688339129268,0.48723013999240417,1.1147483855656668,0.9972375690607734,0.41102815929689124,0.0,0.9915263157894737,50,1149,4222,772025,no_split,narrow,individual,1,0.4630625247955322
1,1.0,0.42469194453889064,0.3462258540737173,0.36254727238384715,0.3775638229011701,0.3916061593115503,0.4070717039886378,0.42499368677182,0.44661763268706955,0.4761516822462718,0.526129289033148,1.257127230668896,0.9863316582914573,0.41102815929689124,0.0,0.9915263157894737,50,1149,4222,772025,no_split,narrow,individual,1,0.4630625247955322
0,0.0,0.4672267076680483,0.3230413870641897,0.34379248501159215,0.3653827317215851,0.389179445523033,0.4163507667115117,0.4502670319381015,0.4963902974720977,0.5677440030614277,0.6801250988720972,1.4451062156042827,0.9708080808080808,0.49153699365130654,0.0,0.9505793450881612,50,1149,4264,772025,no_split,narrow,individual,1,0.46738171577453613
1,1.0,0.515725117393443,0.3474037421107899,0.37811744841854505,0.4074484395193967,0.43764905178323055,0.4715574126642577,0.5123149076715571,0.5635026681944268,0.6299757206419571,0.7409319241866554,1.4561062156042825,0.9304522613065327,0.49153699365130654,0.0,0.9505793450881612,50,1149,4264,772025,no_split,narrow,individual,1,0.46738171577453613
0,0.0,0.42618321571140505,0.3394567237976736,0.3562975548200787,0.3719295979102317,0.3869833923260653,0.4039586737004419,0.42357593361857193,0.44767413240119663,0.4833297863778784,0.5383745328825026,1.1981852373925448,0.9996825396825397,0.44340375487634637,0.0,0.9990760869565217,50,1149,5281,772025,no_split,narrow,individual,1,0.47041988372802734
1,1.0,0.4615863353354185,0.3598180773812267,0.3822964868964777,0.4019295979102317,0.4218386507897865,0.4420745982007367,0.4650705492473726,0.4928058124557188,0.5291523857394962,0.587144172826234,1.1633654005585945,0.9984357541899441,0.44340375487634637,0.0,0.9990760869565217,50,1149,5281,772025,no_split,narrow,individual,1,0.47041988372802734
0,0.0,0.445566801354995,0.34764624319713255,0.36607363309748675,0.3825531239214555,0.4000736330974868,0.4189572551891686,0.44163153172063124,0.4685459083124564,0.5083485551466066,0.5770736330974868,1.394541123015786,0.9997826086956522,0.4699072032351361,0.0,0.9990810810810811,50,1149,5332,772025,no_split,narrow,individual,1,0.4705510139465332
1,1.0,0.49398588036387764,0.380641134366438,0.40645808890784973,0.4290694969817549,0.4511879775353912,0.4736661294032442,0.4993082020084692,0.5292585510773482,0.5676800779457417,0.6292567625179399,1.195319885252206,0.9983870967741936,0.4699072032351361,0.0,0.9990810810810811,50,1149,5332,772025,no_split,narrow,individual,1,0.4705510139465332
0,0.0,0.47044516497098404,0.34164217883388076,0.36764807477738454,0.38996702801789146,0.4133468752379115,0.43853168711173973,0.4696652902610538,0.5057212534687003,0.5546982622880483,0.6388025599477989,1.3387212534687003,0.9986802030456853,0.47943364889653395,0.0,0.9987692307692307,50,1149,5575,772025,no_split,narrow,individual,1,0.4736504554748535
1,1.0,0.4886084226443751,0.35351003357227334,0.3832194269374704,0.407545248048005,0.4325099115392109,0.45934976596834415,0.4903317510444057,0.526573296178518,0.5779006481965606,0.6599979298460807,1.3749213651992458,0.998860103626943,0.47943364889653395,0.0,0.9987692307692307,50,1149,5575,772025,no_split,narrow,individual,1,0.4736504554748535
0,0.0,0.47675567929220014,0.3287501700493914,0.3549904312926213,0.3799694625717598,0.4064191973728124,0.4340506052999368,0.46814440276416086,0.5140338360183984,0.5777088107747055,0.6811164922492081,1.3941945505041717,0.9933678756476684,0.4885277489231613,0.0,0.9928061224489796,50,1149,5731,772025,no_split,narrow,individual,1,0.47173428535461426
1,1.0,0.49994488178132973,0.34110510821231493,0.37203709443199406,0.4023651570992932,0.429960914603635,0.4614159280902148,0.49817627441377066,0.5441818470024421,0.6046265559717096,0.7074097083150758,1.400940694688235,0.9922613065326633,0.4885277489231613,0.0,0.9928061224489796,50,1149,5731,772025,no_split,narrow,individual,1,0.47173428535461426
0,0.0,0.4274090455855273,0.34270222658390925,0.35695472490744135,0.37021396668305584,0.384848933434228,0.4001484845696861,0.4187162948192552,0.442921229231897,0.4801965110394474,0.5438856471332515,1.3466852955377822,0.9985869565217391,0.4634448502887615,0.0,0.9914441416893733,50,1149,5761,772025,no_split,narrow,individual,1,0.44808268547058105
1,1.0,0.49967757195758716,0.3770061360157126,0.4038916576466523,0.42717529287795103,0.4501942918652528,0.47519506548543144,0.5024671438902565,0.536559737679942,0.581380744571205,0.6560320280890768,1.3459185422436084,0.9842622950819672,0.4634448502887615,0.0,0.9914441416893733,50,1149,5761,772025,no_split,narrow,individual,1,0.44808268547058105
0,0.0,0.43863336340931414,0.3132769396676901,0.33260036519271824,0.35351214244598717,0.37551222997192996,0.40073265534901237,0.4299881809246937,0.46885366312532195,0.52562015901777,0.6149512957993238,1.4422328009895482,0.95,0.44411758234078924,0.0,0.9411924119241193,50,1149,5803,772025,no_split,narrow,individual,1,0.4497098922729492
1,1.0,0.4487014071193354,0.3336637869071992,0.3528975976305695,0.3722571338972804,0.3912170726704123,0.4147735214992128,0.4422306195371728,0.4763611662956692,0.527535119816831,0.6085123477447535,1.4107844725797218,0.9338308457711443,0.44411758234078924,0.0,0.9411924119241193,50,1149,5803,772025,no_split,narrow,individual,1,0.4497098922729492
0,0.0,0.5068854176716296,0.3501976543313734,0.3733135426368664,0.3967006247445606,0.42191256593296206,0.45153426931896956,0.48821713768636044,0.5369782343543402,0.6138059887420296,0.7380283154284636,1.443938205380597,0.9779104477611941,0.5325021919398235,0.0,0.9652713178294574,50,1149,5815,772025,no_split,narrow,individual,1,0.4523892402648926
1,1.0,0.5601848351006137,0.38112149054586736,0.41561132577795573,0.4471999239729569,0.48060700120860145,0.5182055788124371,0.5613185770010749,0.6138863914873367,0.6816662925876807,0.7953460867606568,1.4785136080115424,0.9516129032258065,0.5325021919398235,0.0,0.9652713178294574,50,1149,5815,772025,no_split,narrow,individual,1,0.4523892402648926
0,0.0,0.41065220826370813,0.3393967415790064,0.3524419080442702,0.3650833756246218,0.3779284654850562,0.3912126497248125,0.40688998069988663,0.42725876553146463,0.455835902607768,0.5046018796240271,0.9340833756246218,0.9991011235955056,0.4377295254115513,0.0,0.9965122615803814,50,1149,6055,772025,no_split,narrow,individual,1,0.44654202461242676
1,1.0,0.46323091404814426,0.36378549940856286,0.386398920352523,0.4062815238572739,0.4245970420320482,0.44539135137553765,0.4683483306044843,0.4948891203621149,0.5292176340371464,0.585150020417146,1.1985008892176559,0.9940740740740741,0.4377295254115513,0.0,0.9965122615803814,50,1149,6055,772025,no_split,narrow,individual,1,0.44654202461242676
0,0.0,0.47050093510719687,0.33835136979368147,0.35802097768719837,0.37888448154635834,0.4001551953449918,0.4261693338845769,0.45758416048101247,0.5003787398371025,0.5573157918195402,0.6661854164804643,1.4124800972810307,0.9798979591836735,0.48562650385928785,0.0,0.970327868852459,50,1149,6109,772025,no_split,narrow,individual,1,0.4519317150115967
1,1.0,0.5030653948911105,0.3616094196441314,0.3891378136180043,0.4124800972810309,0.4391698440288956,0.467954396310543,0.5003483524889563,0.5416843108845598,0.5942058023985296,0.6927863110398619,1.4274442094976667,0.9592941176470589,0.48562650385928785,0.0,0.970327868852459,50,1149,6109,772025,no_split,narrow,individual,1,0.4519317150115967
0,0.0,0.39646937039816643,0.3190341396551508,0.3314767087481083,0.34250635223316866,0.35393745901559276,0.3688035530835842,0.3863729254150062,0.4093038390870984,0.4423571833496022,0.5056643540260426,1.365890830463672,0.994811320754717,0.4289467069440241,0.0,0.9795203836930456,50,1149,6214,772025,no_split,narrow,individual,1,0.4498472213745117
1,1.0,0.4625330257133989,0.3520333420864305,0.37588660600291424,0.39693745901559274,0.418052773916716,0.4409300729006132,0.4668612635199009,0.49645538953635465,0.5373421522262191,0.6016911616616927,1.347081891899165,0.9637073170731707,0.4289467069440241,0.0,0.9795203836930456,50,1149,6214,772025,no_split,narrow,individual,1,0.4498472213745117
0,0.0,0.465151090437607,0.33374839798557643,0.35544149881585807,0.3750153357420075,0.39700050256987685,0.42254351633084963,0.4520153357420075,0.4943367336617869,0.5531486489532286,0.6556162115772697,1.3804538621576055,0.9744680851063829,0.4743655116803408,0.0,0.9688594164456233,50,1149,6253,772025,no_split,narrow,individual,1,0.4500694274902344
1,1.0,0.4835311793715258,0.34665488378212306,0.3714414988158581,0.3953281503558584,0.4203422435546411,0.4467503410977943,0.4793987816630301,0.5164517583415745,0.5726613279742111,0.6694538621576055,1.4294401259687957,0.9632804232804233,0.4743655116803408,0.0,0.9688594164456233,50,1149,6253,772025,no_split,narrow,individual,1,0.4500694274902344
0,0.0,0.4680346132967222,0.34885251852123406,0.3697724833692357,0.3883126475746961,0.40991592034103913,0.43330345932180303,0.46085323221534796,0.49277984434730104,0.5441362293189211,0.6334620248325307,1.4496625690992715,0.9964640883977901,0.48795961960227113,0.0,0.99125,50,1149,6262,772025,no_split,narrow,individual,1,0.4519171714782715
1,1.0,0.5072453208926687,0.36830345932180303,0.3951927412661513,0.42030989109882816,0.44618260606298377,0.4727687798321164,0.5069254216178546,0.5491627484562368,0.6030687863842653,0.6874504663408815,1.4414786943593536,0.9862032085561497,0.48795961960227113,0.0,0.99125,50,1149,6262,772025,no_split,narrow,individual,1,0.4519171714782715
0,0.0,0.5015484662441976,0.3963511553527476,0.4165666477621195,0.4355498289174547,0.45457412977001693,0.47512601940991567,0.5005458165612496,0.5302932057875093,0.5714704262611824,0.6381704390955477,1.3628006245382767,0.9990374331550802,0.5178374115476154,0.0,0.997554347826087,50,1149,6361,772025,no_split,narrow,individual,1,0.4519219398498535
1,1.0,0.5346663218887157,0.4180003081864267,0.44374935091346623,0.46481277886720407,0.4868006245382767,0.510583143509397,0.537875467583427,0.5701362180831426,0.6117082933341236,0.6825723597800294,1.3865666477621195,0.9960220994475139,0.5178374115476154,0.0,0.997554347826087,50,1149,6361,772025,no_split,narrow,individual,1,0.4519219398498535
0,0.0,0.4169839081225634,0.315392263254803,0.33547823986579667,0.3526570977310438,0.3710474459068083,0.3900820209355541,0.4135584503813163,0.44346656833386344,0.4831309912541187,0.5507937952031755,1.2599569216476432,0.9994535519125683,0.43559061246538766,0.0,0.9991052631578947,50,1149,6427,772025,no_split,narrow,individual,1,0.4512498378753662
1,1.0,0.4528750129462853,0.3436671799839477,0.368392263254803,0.39005599403525354,0.40968474973484675,0.43163694467266833,0.4561058179600769,0.4857001841388931,0.5234468157425972,0.5863922632548031,1.28295886136597,0.9987817258883249,0.43559061246538766,0.0,0.9991052631578947,50,1149,6427,772025,no_split,narrow,individual,1,0.4512498378753662
0,0.0,0.46810071516194607,0.3691017646573149,0.38642694306374664,0.40226673194836154,0.41987275653022765,0.4384359896431448,0.4617604702088239,0.49024043392036676,0.5330775296607981,0.6072821720607159,1.3257283526508008,0.9943455497382199,0.47886719736228034,0.0,0.9907651715039578,50,1149,6583,772025,no_split,narrow,individual,1,0.44384217262268066
1,1.0,0.4898054851296412,0.38607509248568,0.4075036443266548,0.42554726356800926,0.4450996408297446,0.46442908908318337,0.4892585279828645,0.5171945427329232,0.5572250962966002,0.6233015412942157,1.167798908511911,0.9871276595744681,0.47886719736228034,0.0,0.9907651715039578,50,1149,6583,772025,no_split,narrow,individual,1,0.44384217262268066
0,0.0,0.43950354440167433,0.3450043964508664,0.36012904257833284,0.3750750053920883,0.3898340089738415,0.4079893577876207,0.4293319078839339,0.4577536434936333,0.5016114820395701,0.5732469023381356,1.2983117150313594,0.9901538461538462,0.46527682645295637,0.0,0.9776410256410256,50,1149,6634,772025,no_split,narrow,individual,1,0.44440197944641113
1,1.0,0.4910501085042384,0.3677801956027414,0.39234982104015903,0.41490749714162184,0.4386561934044536,0.4641290425783328,0.4919951494389863,0.5262285628531606,0.5756110798517108,0.6515171478896735,1.2647169638167886,0.9651282051282051,0.46527682645295637,0.0,0.9776410256410256,50,1149,6634,772025,no_split,narrow,individual,1,0.44440197944641113
0,0.0,0.45837386366029403,0.35718960030664515,0.3745204446410892,0.3897202641487301,0.4074438383543043,0.42580655560221603,0.4495661578443677,0.4787890796072116,0.5196627711571965,0.5978562948607036,1.4392518447792157,0.9971578947368421,0.4948151338357326,0.0,0.9890666666666666,50,1149,6844,772025,no_split,narrow,individual,1,0.4473752975463867
1,1.0,0.532241303205102,0.39281327519543874,0.4213186950498705,0.4474830757650743,0.4741410415603421,0.5043498128193715,0.5372023570702741,0.5761609795106855,0.6259508029106441,0.7094857458585309,1.4817592081058053,0.9807567567567568,0.4948151338357326,0.0,0.9890666666666666,50,1149,6844,772025,no_split,narrow,individual,1,0.4473752975463867
0,0.0,0.43917444746174766,0.34113223125296277,0.3566239239406237,0.3713054060876086,0.38699412914099934,0.40513346374414494,0.42698556222712997,0.45617953562724683,0.501486704678678,0.5821602165801447,1.3480685753664576,0.9863387978142076,0.46617636137011703,0.0,0.9725885558583106,50,1149,7624,772025,no_split,narrow,individual,1,0.4436831474304199
1,1.0,0.4930315257463759,0.3642140483247899,0.3895513618961305,0.4126261548690392,0.4382235213279006,0.4639532829645956,0.49447838385379744,0.5312074046426589,0.5782873797894721,0.6605466792158614,1.3851988163990294,0.9589130434782609,0.46617636137011703,0.0,0.9725885558583106,50,1149,7624,772025,no_split,narrow,individual,1,0.4436831474304199
0,0.0,0.40285669505593785,0.3243415073198881,0.33675882309844396,0.3487588230984439,0.3614301673705007,0.3749331877978199,0.393190403813937,0.4160226163480833,0.4502250408516886,0.5177224386999226,1.2290076827747642,0.993475935828877,0.43451710024436024,0.0,0.973733681462141,50,1149,7756,772025,no_split,narrow,individual,1,0.4466977119445801
1,1.0,0.46472371131698775,0.34861204659537837,0.3728122129661212,0.3938122129661212,0.41598542946668693,0.4397414655630745,0.4669757916198507,0.5000147950462707,0.5413558723581513,0.6151485220508525,1.2987689746843212,0.9548979591836735,0.43451710024436024,0.0,0.973733681462141,50,1149,7756,772025,no_split,narrow,individual,1,0.4466977119445801
0,0.0,0.4394053319115153,0.31428603754611156,0.33806938408084075,0.3595643500682619,0.3815086320832566,0.40634503427360186,0.43535884971562755,0.4721523598286841,0.522812047662557,0.6046436992144948,1.3830035353535657,0.9965625,0.4454602444560786,0.0,0.9951871657754011,50,1149,7768,772025,no_split,narrow,individual,1,0.45216798782348633
1,1.0,0.45184784450309035,0.32528450811627746,0.35132222976193744,0.3742502540419007,0.3967074568003258,0.42213997583931345,0.451276860967107,0.4858311224144824,0.5341839916511132,0.6165529458816713,1.3240659084019981,0.9937362637362638,0.4454602444560786,0.0,0.9951871657754011,50,1149,7768,772025,no_split,narrow,individual,1,0.45216798782348633
0,0.0,0.40266859987191844,0.29537961987165906,0.31284365876637993,0.32866171024402036,0.3466263904693933,0.36672188910160597,0.390166125936291,0.4223456865438943,0.4699708315431087,0.5574620344201872,1.290293968742068,0.985668449197861,0.4300120792578077,0.0,0.9679569892473119,50,1149,7807,772025,no_split,narrow,individual,1,0.44661593437194824
1,1.0,0.45765116382624715,0.319104578945139,0.3455625630595892,0.3713929314547203,0.3974277613763475,0.42626593096133636,0.4596796253026109,0.4993814896266428,0.5505066551341105,0.6323927063132174,1.346380710553006,0.9500540540540541,0.4300120792578077,0.0,0.9679569892473119,50,1149,7807,772025,no_split,narrow,individual,1,0.44661593437194824
0,0.0,0.3959996480581439,0.31661122463091806,0.3295915696369804,0.3418687985160855,0.35450599323357174,0.36933924569618193,0.38661122463091807,0.4093713796521505,0.4446175489023173,0.5087118236181885,1.2205918318867253,0.9946153846153846,0.4164404005466526,0.0,0.9846537396121884,50,1149,7813,772025,no_split,narrow,individual,1,0.44541358947753906
1,1.0,0.4372237354791028,0.335911725067426,0.3572919254549457,0.37550599323357176,0.3947272824652393,0.41475540718413384,0.43920158312097246,0.46864568190813516,0.5055782676767228,0.5644583339748453,1.1778670375129259,0.9745251396648045,0.4164404005466526,0.0,0.9846537396121884,50,1149,7813,772025,no_split,narrow,individual,1,0.44541358947753906
0,0.0,0.4050415392519161,0.32613002619103487,0.34244473726864194,0.3559291698138117,0.3700663807959324,0.3855355319109086,0.40310520179698345,0.4253030754733812,0.4556507890797129,0.5088116090672918,1.254551779381166,0.9996808510638298,0.43571124748869716,0.0,0.9995544554455446,50,1149,7828,772025,no_split,narrow,individual,1,0.45174264907836914
1,1.0,0.4624052528058956,0.35904207402823635,0.3838257128211895,0.40360481361491657,0.4236048136149166,0.44555177938116597,0.4682222316381609,0.49583857014649957,0.5310850402652224,0.5864513605817172,1.0797534196469771,0.9994444444444445,0.43571124748869716,0.0,0.9995544554455446,50,1149,7828,772025,no_split,narrow,individual,1,0.45174264907836914
0,0.0,0.5364725676866504,0.3828695108445421,0.40832702642986596,0.4331646021081183,0.4609645172693444,0.48961935832628345,0.5247167636092898,0.5719390469469688,0.6379673274579453,0.7570221353187149,1.495196490386977,0.9933333333333333,0.5564938375279203,0.0,0.9886304909560724,50,1149,7840,772025,no_split,narrow,individual,1,0.4469625949859619
1,1.0,0.5756050496491324,0.4070452749345855,0.4415143074424189,0.4706256426630742,0.5013977058512279,0.535679619049808,0.575096005353603,0.6244511522237249,0.6878701889776869,0.7951657841615165,1.4893910786342182,0.9841414141414141,0.5564938375279203,0.0,0.9886304909560724,50,1149,7840,772025,no_split,narrow,individual,1,0.4469625949859619
0,0.0,0.46737109602160265,0.3823167535318453,0.39888035814867046,0.4135571290956842,0.4288529984998718,0.44547803388580576,0.4659767164223216,0.4897904502368098,0.5244543196735131,0.5780238452564694,1.064847153100454,0.9998888888888889,0.4922987449104915,0.0,0.99936,50,1149,7924,772025,no_split,narrow,individual,1,0.44512367248535156
1,1.0,0.5153088823463889,0.4157034875350863,0.4390738541283377,0.4591617828985183,0.47823898661127645,0.4987961459383628,0.5220930243544842,0.5476325435556216,0.5813028099318956,0.6342401566655599,1.1584344410809317,0.9988717948717949,0.4922987449104915,0.0,0.99936,50,1149,7924,772025,no_split,narrow,individual,1,0.44512367248535156
0,0.0,0.4585046533309624,0.3506620701144676,0.37224027157868717,0.39151087952388547,0.41051325720451204,0.43132263712797825,0.45602794832373084,0.4869132511173931,0.5276620701144676,0.6029276696701539,1.3489217462176657,0.9997894736842106,0.4752771036973848,0.0,0.9993924050632912,50,1149,7939,772025,no_split,narrow,individual,1,0.44901323318481445
1,1.0,0.49082230159797136,0.37685158909356536,0.40240063176173946,0.42500755015109537,0.4466783450346717,0.46995136348010624,0.49483151295182715,0.5249751713123422,0.5656890585703881,0.6310634835109273,1.3629217462176657,0.9990243902439024,0.4752771036973848,0.0,0.9993924050632912,50,1149,7939,772025,no_split,narrow,individual,1,0.44901323318481445
0,0.0,0.45556221331728547,0.33627970083108427,0.3575191126128148,0.37610548214759215,0.3957332655972527,0.41838115952367766,0.44532170578149627,0.480758034029251,0.5313427288783561,0.6272797008310843,1.3235221472372356,0.996,0.47788653278313037,0.0,0.9916949152542373,50,1149,8026,772025,no_split,narrow,individual,1,0.44181275367736816
1,1.0,0.4973760180310902,0.3614773043013212,0.39000278590578935,0.41440768830734315,0.4398081214313182,0.4671231138131402,0.4984390580074521,0.5382321775357272,0.5880899956217148,0.6711703491058375,1.4137734863665705,0.9879365079365079,0.47788653278313037,0.0,0.9916949152542373,50,1149,8026,772025,no_split,narrow,individual,1,0.44181275367736816
0,0.0,0.44597888249671164,0.321561328989106,0.34090695410947847,0.35893714985786207,0.37886330270935614,0.40399426975432445,0.4343901148742911,0.4713866283499928,0.5278690604637163,0.6303551959540666,1.4275244583911726,0.9533689839572193,0.4584205236951586,0.0,0.9407123287671233,50,1149,8311,772025,no_split,narrow,individual,1,0.44542717933654785
1,1.0,0.4714912366395945,0.3377690103008648,0.36205609880731354,0.3860522427471747,0.4090841659026147,0.4359671270002716,0.46674332672555796,0.5065360301050224,0.5595776481998983,0.6523761687770978,1.4645460129550127,0.9274157303370787,0.4584205236951586,0.0,0.9407123287671233,50,1149,8311,772025,no_split,narrow,individual,1,0.44542717933654785
0,0.0,0.39052949117207514,0.29916884973659397,0.31387001931468,0.3281879342152014,0.3433198171822231,0.35989701456357437,0.3795182394306139,0.4076960430593186,0.4461992351091407,0.5187860492293497,1.418248181697654,0.9952331606217617,0.4232360924049268,0.0,0.9809756097560975,50,1149,8446,772025,no_split,narrow,individual,1,0.4447958469390869
1,1.0,0.45910185398413356,0.32648946722313776,0.35425291872431647,0.3784320012779818,0.40487001931468003,0.4318761435224529,0.4618807470592711,0.5003933041817141,0.5501133604571695,0.6242513699143521,1.410799401225034,0.9653409090909091,0.4232360924049268,0.0,0.9809756097560975,50,1149,8446,772025,no_split,narrow,individual,1,0.4447958469390869
0,0.0,0.48467423049147,0.38732922666314373,0.40439642367365286,0.42129501950451853,0.43802959158986443,0.45683693890006793,0.4798479201853655,0.5082296877144745,0.5484076597038267,0.6206411940326789,1.2521498040413848,0.9958793969849247,0.4980787366586696,0.0,0.9931428571428571,50,1149,8521,772025,no_split,narrow,individual,1,0.46297550201416016
1,1.0,0.5124201169128241,0.4041636777624567,0.4254920290851197,0.4448217081069972,0.4648090972793087,0.4871567409019208,0.5116344512145374,0.5433106004261651,0.5843299205907208,0.6545571998129502,1.375675222940297,0.9902150537634409,0.4980787366586696,0.0,0.9931428571428571,50,1149,8521,772025,no_split,narrow,individual,1,0.46297550201416016
0,0.0,0.559802686491967,0.40810620478791515,0.4379303415595016,0.46405177846314044,0.4902779938896917,0.5215639721056116,0.5573765094076523,0.5989252504721293,0.6606569734150766,0.7604644231841545,1.4949085129080855,0.9973770491803279,0.5685416098796319,0.0,0.9963896848137536,50,1149,8704,772025,no_split,narrow,individual,1,0.47144365310668945
1,1.0,0.5781754832527807,0.42405446037189004,0.45710291424048166,0.48516830476183614,0.5119136097202834,0.5416769142025203,0.5773493772300091,0.6170488175784001,0.6782344483535659,0.7802624611651913,1.4483240492602358,0.9953012048192771,0.5685416098796319,0.0,0.9963896848137536,50,1149,8704,772025,no_split,narrow,individual,1,0.47144365310668945
0,0.0,0.45538937469216956,0.3322014869261767,0.3584827408561569,0.3819970269481649,0.4053669425478806,0.4299790612996077,0.4581925331192005,0.4914697017498718,0.5353801645232696,0.610116921127313,1.3931334050093929,0.9998067632850242,0.4680085016407228,0.0,0.9996907216494846,50,1149,8755,772025,no_split,narrow,individual,1,0.47767186164855957
1,1.0,0.482440320858129,0.35245267217064197,0.38073412431157116,0.4052516589604724,0.43066118502257233,0.45820502934171736,0.48918958716079086,0.523461767322768,0.5704715689463231,0.6411501943956156,1.3291487267576805,0.9995580110497237,0.4680085016407228,0.0,0.9996907216494846,50,1149,8755,772025,no_split,narrow,individual,1,0.47767186164855957
0,0.0,0.45732006420588694,0.34216548768806676,0.3615601756496848,0.37880320800719597,0.3989284105851626,0.4202063036399242,0.44883632712158317,0.48192900162069147,0.5315939968455863,0.6178459970657262,1.435820230760556,0.9951923076923077,0.47960437959050234,0.0,0.99155,50,1149,8785,772025,no_split,narrow,individual,1,0.4720602035522461
1,1.0,0.5037457212571691,0.36897151660686894,0.39649418912973683,0.4232539129364578,0.4473304481271019,0.47419273099427894,0.5048062255951637,0.5409519843729712,0.5902835388918142,0.673953226043222,1.3768062255951636,0.9876041666666666,0.47960437959050234,0.0,0.99155,50,1149,8785,772025,no_split,narrow,individual,1,0.4720602035522461
0,0.0,0.399571037219108,0.30445050731531503,0.3189348016806907,0.3324947666386998,0.3471634931479276,0.36520682111773217,0.38615761195139053,0.4141036513701476,0.4542138102185314,0.5434655779991704,1.3184026384880614,0.9831914893617021,0.43294023346698857,0.0,0.9539845758354756,50,1149,8788,772025,no_split,narrow,individual,1,0.46883225440979004
1,1.0,0.46415122299236944,0.3306407984975113,0.3582305382448171,0.38255606596432984,0.40792027745870585,0.43491099243224224,0.46741020122211013,0.5062148389994255,0.5551730741263691,0.6334074253707869,1.2759554082180726,0.9266666666666666,0.43294023346698857,0.0,0.9539845758354756,50,1149,8788,772025,no_split,narrow,individual,1,0.46883225440979004
0,0.0,0.4262069359200757,0.3661522225160861,0.37653811590874886,0.38567488697926505,0.3955447800291005,0.40666310663990124,0.4197683052921921,0.4368303933700222,0.4629701181279132,0.5102773186206244,1.2009550060995122,0.9965555555555555,0.4503053639710775,0.0,0.9892896174863388,50,1149,161753,772025,no_split,narrow,individual,1,0.463592529296875
1,1.0,0.47362642337527283,0.3888217265897016,0.4078214216635999,0.4252480945836772,0.44109797624329,0.45815462231266657,0.47649033285522097,0.49853029991477776,0.5285730876755308,0.5779711437699825,1.0629550060995123,0.9822580645161291,0.4503053639710775,0.0,0.9892896174863388,50,1149,161753,772025,no_split,narrow,individual,1,0.463592529296875
0,0.0,0.44256989200042685,0.3611800452085435,0.3762319006001325,0.3913402689680433,0.40511641793559994,0.42045155298602205,0.4383100597755053,0.46092186766519955,0.4942458812847779,0.5504891272539483,1.064231006557704,0.9997938144329896,0.4625797856174481,0.0,0.9984042553191489,50,1149,337788,772025,no_split,narrow,individual,1,0.4549686908721924
1,1.0,0.48390901287954763,0.3835183462913293,0.40531232007285295,0.4242519042769538,0.44413195258744054,0.4645587366935261,0.4874336608787378,0.515513011872973,0.5519230502437048,0.6093996966067194,1.167894732635048,0.9969230769230769,0.4625797856174481,0.0,0.9984042553191489,50,1149,337788,772025,no_split,narrow,individual,1,0.4549686908721924
