,congruency,mean_rt,qu10_rt,qu20_rt,qu30_rt,qu40_rt,qu50_rt,qu60_rt,qu70_rt,qu80_rt,qu90_rt,qu100_rt,mean_acc,mean_rt_overall,nonconvergent_trials,accuracy_overall,n_posterior_draws,condition,id,slurm_id,split,spacing,estimation_level,number_parts,time_post_sampling_sec
0,0.0,0.4209193939465854,0.3418557910787828,0.3582804739330415,0.37165602442435924,0.38608387520926585,0.4017828665798106,0.4203868140682501,0.44426316496229473,0.47412977174230636,0.5274436735229426,1.0013785052236601,0.9765263157894737,0.4273803835336203,0.0,0.9616931216931217,50,1163,1108,772030,no_split,wide,individual,1,0.49399328231811523
1,1.0,0.43391010705243205,0.34919685451556054,0.37015102793530114,0.3873288892155342,0.403404959126661,0.419980443075634,0.43823627278074984,0.4608078732480172,0.48940595483612614,0.5347494997264701,1.0891306818181032,0.9467021276595745,0.4273803835336203,0.0,0.9616931216931217,50,1163,1108,772030,no_split,wide,individual,1,0.49399328231811523
0,0.0,0.4447936662554945,0.35701554044983047,0.37812869689271,0.395489032619162,0.4123024561685845,0.42837913417333384,0.44729690465481015,0.4711204866613339,0.5011975496375372,0.5522862509579142,1.4174405049084904,0.9682539682539683,0.4521178894327901,0.0,0.959,50,1163,1507,772030,no_split,wide,individual,1,0.48003053665161133
1,1.0,0.4593654191736744,0.3638082216690976,0.38692157497245516,0.4050474115250979,0.4236081793299631,0.44349021293448554,0.46435759716010466,0.49009555099715785,0.5236340104675384,0.5744807196659383,1.0988828793143806,0.9498429319371727,0.4521178894327901,0.0,0.959,50,1163,1507,772030,no_split,wide,individual,1,0.48003053665161133
0,0.0,0.4517010159207573,0.3568923172519404,0.38181140534280067,0.40110874053721357,0.41802433267642786,0.4358987513689269,0.45623061871411064,0.4806495292936439,0.5122107996551667,0.566010019637711,0.9968210106453576,0.9883157894736843,0.46156935155606055,0.0,0.9813123359580053,50,1163,1538,772030,no_split,wide,individual,1,0.4873342514038086
1,1.0,0.47138602051264505,0.3671539174433226,0.3960445975901828,0.41846859244986245,0.4382134140220105,0.45885718486965754,0.4805951952675029,0.5059394041012376,0.5382392142283701,0.5899090093260745,1.0021571575123605,0.9743455497382199,0.46156935155606055,0.0,0.9813123359580053,50,1163,1538,772030,no_split,wide,individual,1,0.4873342514038086
0,0.0,0.4661314434315652,0.3748836381339568,0.3978253803359233,0.4156917829100485,0.4338187125519798,0.4525503303365659,0.4726756922699218,0.49573232508922394,0.5263821984159743,0.5743711681925356,1.1025866576795906,0.9836956521739131,0.4698652487904811,0.0,0.9792432432432432,50,1163,1582,772030,no_split,wide,individual,1,0.48957157135009766
1,1.0,0.47355890570467735,0.3792870214810222,0.4030712227599527,0.42346846847130615,0.44211449676183456,0.46034498826634074,0.48069622711321386,0.5047762466814499,0.5357699711444539,0.5852400001609818,1.1328255054502692,0.9748387096774194,0.4698652487904811,0.0,0.9792432432432432,50,1163,1582,772030,no_split,wide,individual,1,0.48957157135009766
0,0.0,0.44169209505785917,0.3583674100667775,0.3794321438648439,0.3954873895986084,0.41115698905681014,0.4263851721827846,0.44287542153122744,0.46387054394661587,0.49283347907522124,0.5434402125661046,1.0221326395307475,0.9744502617801047,0.45317189811755293,0.0,0.9554569190600523,50,1163,1583,772030,no_split,wide,individual,1,0.48837924003601074
1,1.0,0.46459191053631077,0.3696322067608207,0.39350288654102006,0.41344868945738383,0.43142681138027356,0.45017401051429895,0.4717174936692741,0.4957801247615903,0.5276000117702475,0.5760760622847955,1.0656116291758233,0.9365625,0.45317189811755293,0.0,0.9554569190600523,50,1163,1583,772030,no_split,wide,individual,1,0.48837924003601074
0,0.0,0.5675686226537486,0.4023849284369162,0.4401539991713467,0.47103552509304303,0.502071362523633,0.5360273089086741,0.5713445416201369,0.6159338743094968,0.6773669705830472,0.7776247682665828,1.4620667356398487,0.9690395480225988,0.5730137379379806,0.0,0.9628571428571429,50,1163,1597,772030,no_split,wide,individual,1,0.4799208641052246
1,1.0,0.578167670586692,0.40978384495163306,0.4495710283877562,0.48376910385993344,0.514021481516722,0.5502720907959429,0.5872178938926321,0.6311498881797434,0.6873373423148458,0.7803957405365984,1.5298003654083658,0.9570053475935829,0.5730137379379806,0.0,0.9628571428571429,50,1163,1597,772030,no_split,wide,individual,1,0.4799208641052246
0,0.0,0.40802492789226047,0.33434100174757264,0.35417328122616576,0.36926654650476276,0.38353076553286325,0.39699175818061894,0.4126843986817911,0.43079272166622873,0.45702313908291836,0.49675222720924406,0.7919278849691891,0.9909473684210526,0.4182805196977431,0.0,0.9847493403693931,50,1163,1601,772030,no_split,wide,individual,1,0.4792366027832031
1,1.0,0.428590373893731,0.3443721718696364,0.3678007940978177,0.38554327468150734,0.40139828926724774,0.41861150461152463,0.4369240665438678,0.4574273576556196,0.4852810276415455,0.5248707711568248,0.8630875016005876,0.9785185185185186,0.4182805196977431,0.0,0.9847493403693931,50,1163,1601,772030,no_split,wide,individual,1,0.4792366027832031
0,0.0,0.48480071055317653,0.35218466892435574,0.3804425533262258,0.4057275309034183,0.42935781105112353,0.45697156573096825,0.4878287929878475,0.522533124607762,0.5744426199291551,0.6557481112912583,1.3579650370189016,0.974,0.490188527366877,0.0,0.969,50,1163,1614,772030,no_split,wide,individual,1,0.4756505489349365
1,1.0,0.4955763441805774,0.3558181036456993,0.38839136468648044,0.4155466221002173,0.4408778565988732,0.46855483277527854,0.5009229985676656,0.5374512558819285,0.5862245173006163,0.6662713320471019,1.4819448135718398,0.964,0.490188527366877,0.0,0.969,50,1163,1614,772030,no_split,wide,individual,1,0.4756505489349365
0,0.0,0.42423917387878457,0.37174723827382294,0.3864160214585355,0.3978608502745031,0.4079485813067905,0.41828265549155674,0.42927420010159006,0.4420888644915278,0.4574610668830995,0.4834357234251187,0.7118651580281662,0.9946315789473684,0.4301914149948236,0.0,0.9910236220472441,50,1163,161753,772030,no_split,wide,individual,1,0.47615981101989746
1,1.0,0.43611249254481016,0.37716091995981876,0.3927203508379578,0.40595470433217806,0.418738233132196,0.43080167552916465,0.4431814682279942,0.4574725590878444,0.4755218795971378,0.5027434989589452,0.690640581896661,0.987434554973822,0.4301914149948236,0.0,0.9910236220472441,50,1163,161753,772030,no_split,wide,individual,1,0.47615981101989746
0,0.0,0.46916055890649894,0.3738532667836132,0.3965967718259491,0.4147723507339719,0.43281378739084203,0.4525805487253807,0.4732721806936494,0.49802783992978034,0.5305212638212606,0.585647544944361,1.2499451045910306,0.9837234042553191,0.4751118738290704,0.0,0.9780474934036939,50,1163,1638,772030,no_split,wide,individual,1,0.46927785873413086
1,1.0,0.48096971260102545,0.3816580392901153,0.40621741704509035,0.42585210800990086,0.4461314501610405,0.4651587473157452,0.4867383434618711,0.5125410910057804,0.5449924640538717,0.6021008162002885,1.0809553030924677,0.9724607329842931,0.4751118738290704,0.0,0.9780474934036939,50,1163,1638,772030,no_split,wide,individual,1,0.46927785873413086
0,0.0,0.3976832435976612,0.32637632166200065,0.34490793497596817,0.3598602867552975,0.3735834442432953,0.38683022838044906,0.401601434136901,0.4194249049987281,0.44278376212646503,0.48246760296853447,0.938514366330834,0.9777894736842105,0.40629745245365745,0.0,0.9682849604221636,50,1163,1657,772030,no_split,wide,individual,1,0.4670217037200928
1,1.0,0.41495723913428856,0.33333248297867596,0.3551385779196479,0.37201915337424674,0.38747788890499013,0.4043864062418375,0.42205845339288894,0.4422460338287444,0.4688274716747479,0.5084446102359739,0.8664928110525046,0.9587301587301588,0.40629745245365745,0.0,0.9682849604221636,50,1163,1657,772030,no_split,wide,individual,1,0.4670217037200928
0,0.0,0.4630820208877577,0.3743239374692145,0.39465453773968484,0.4111493781386627,0.42787015259931327,0.44473802069668067,0.4653506182345888,0.4882895525841023,0.5209752423308274,0.5758023920901958,1.1948957186922389,0.9865957446808511,0.47375659452890073,0.0,0.98,50,1163,1663,772030,no_split,wide,individual,1,0.46120476722717285
1,1.0,0.484318804236979,0.384283390884975,0.4079181556362336,0.42851282463492696,0.44827012058884347,0.4684137391050013,0.4908309886500764,0.5173650772542011,0.5504521937122411,0.6023721634853345,1.0272989499626106,0.9734736842105263,0.47375659452890073,0.0,0.98,50,1163,1663,772030,no_split,wide,individual,1,0.46120476722717285
0,0.0,0.5155197647426021,0.40199509023105306,0.4284430774290691,0.45092571688149524,0.47232204981643544,0.49522906813680895,0.5199242932498296,0.5483014422448105,0.5916668156547888,0.6573712231502402,1.412748185095546,0.9731182795698925,0.5244871822448656,0.0,0.9630026809651474,50,1163,1761,772030,no_split,wide,individual,1,0.4613971710205078
1,1.0,0.5334066456428389,0.4100463728206297,0.44083263680524926,0.4659261822383539,0.48972698438935974,0.513925009686031,0.5415261508584123,0.5725255206134364,0.6142521190413439,0.6805528026952951,1.4063045494882749,0.9529411764705882,0.5244871822448656,0.0,0.9630026809651474,50,1163,1761,772030,no_split,wide,individual,1,0.4613971710205078
0,0.0,0.4485150723857441,0.34709679998569487,0.37066129386325897,0.39127905892308795,0.4099343992988197,0.4296866108427297,0.45186726925394743,0.4792698795297724,0.513877723411172,0.5735528852852909,1.41821296371893,0.9521465968586388,0.4525737971929227,0.0,0.9416230366492147,50,1163,1768,772030,no_split,wide,individual,1,0.4621005058288574
1,1.0,0.45663252200010124,0.35030852765464027,0.37648150216973897,0.39826538392433986,0.41773329331362846,0.4377949838145767,0.4617122750056621,0.4897339174317576,0.526140178173474,0.5873363405664276,1.214022248678794,0.9310994764397906,0.4525737971929227,0.0,0.9416230366492147,50,1163,1768,772030,no_split,wide,individual,1,0.4621005058288574
0,0.0,0.37796547514796236,0.30377878003080966,0.32277397775817596,0.33762021476401016,0.3521348307709633,0.36611611158117446,0.38161900356204165,0.400534199044036,0.42565711937356837,0.4667981906606241,0.8266510151826628,0.9630851063829787,0.3824066517270275,0.0,0.9524468085106383,50,1163,1813,772030,no_split,wide,individual,1,0.46770811080932617
1,1.0,0.38684782830609254,0.3063708608887301,0.3279711747339677,0.3437920287531668,0.35936754620776273,0.375596880770411,0.39279602897992844,0.4124548274414033,0.43790380908405596,0.4826125801608402,0.9200938641111459,0.9418085106382978,0.3824066517270275,0.0,0.9524468085106383,50,1163,1813,772030,no_split,wide,individual,1,0.46770811080932617
0,0.0,0.3873014729985362,0.3108933682575118,0.33050705123087865,0.3465199770299807,0.3605441915861186,0.374656032794778,0.3898382335426534,0.40954478989771026,0.4365508697218368,0.48018398352693503,0.9935775530054313,0.9825263157894737,0.39391549311514923,0.0,0.9783202099737532,50,1163,1821,772030,no_split,wide,individual,1,0.4615437984466553
1,1.0,0.40049488485418844,0.3180626613748778,0.3385816946251092,0.35445034782496043,0.37096562137032335,0.38748014499961536,0.40662445013754756,0.4278875516131306,0.4545562381617685,0.5002831145887233,0.9677196137489871,0.9741361256544503,0.39391549311514923,0.0,0.9783202099737532,50,1163,1821,772030,no_split,wide,individual,1,0.4615437984466553
0,0.0,0.4444772990418249,0.3531793984434327,0.37653934189979227,0.3949028338248579,0.4120485571424833,0.4305824998583129,0.4501801506293181,0.4735640117131787,0.5043043535576074,0.5512829973439175,1.1586063378308482,0.9850261780104712,0.44740160662858053,0.0,0.9836170212765958,50,1163,275,772030,no_split,wide,individual,1,0.4641106128692627
1,1.0,0.4504207566235552,0.35666911265614987,0.3792392760008918,0.3990121711628787,0.4181634963273578,0.4373529779935147,0.45848687742192895,0.48047218547950454,0.5125836996068702,0.5628044436998579,1.0160261021889752,0.9821621621621621,0.44740160662858053,0.0,0.9836170212765958,50,1163,275,772030,no_split,wide,individual,1,0.4641106128692627
0,0.0,0.3805234437994687,0.3068529472595877,0.32293878951176885,0.3371546383161812,0.350630920640952,0.3644531362347363,0.38170144575001314,0.40126131138287846,0.42972998752143027,0.47204713161203565,1.102320000174182,0.9796808510638297,0.3856415103009994,0.0,0.9727851458885942,50,1163,3286,772030,no_split,wide,individual,1,0.4643697738647461
1,1.0,0.39073249708559077,0.3108713622233366,0.3302328974075099,0.3457722468711449,0.3611034022137114,0.3772495060251765,0.39523942796179623,0.4169003307381597,0.4444536106436945,0.4872019705115769,0.9124757948029218,0.965925925925926,0.3856415103009994,0.0,0.9727851458885942,50,1163,3286,772030,no_split,wide,individual,1,0.4643697738647461
0,0.0,0.45632838781308727,0.36141853499213716,0.3845064920662104,0.4038112316146434,0.42153324227828803,0.4399067164450532,0.4607152897951346,0.48660548391806224,0.5186222617452101,0.57112558245881,1.0392308748129901,0.9856084656084656,0.46464671127074647,0.0,0.9783641160949869,50,1163,3292,772030,no_split,wide,individual,1,0.4628748893737793
1,1.0,0.4729212540786286,0.37111587848497046,0.39818024097165844,0.41989634246318014,0.4387172793651753,0.45969378915472703,0.48204803418683434,0.5085153730216303,0.5410768694463624,0.5895946844306875,1.3173363334171981,0.9711578947368421,0.46464671127074647,0.0,0.9783641160949869,50,1163,3292,772030,no_split,wide,individual,1,0.4628748893737793
0,0.0,0.4491746426255969,0.3672308989810196,0.3885983029611556,0.40636952235345913,0.4227494736365265,0.43825380681499887,0.4554841936523222,0.477244254734086,0.5034351557369536,0.5447475008796635,0.996968683264455,0.9882105263157894,0.45424728815195925,0.0,0.9855643044619422,50,1163,337788,772030,no_split,wide,individual,1,0.46297359466552734
1,1.0,0.45929337532478043,0.3739527267842516,0.39655475893561704,0.41484129873589476,0.43209821667315257,0.4494379759725778,0.46782451738516534,0.489199649534306,0.5157502582756964,0.5574824770587755,0.9016673657799626,0.9829319371727748,0.45424728815195925,0.0,0.9855643044619422,50,1163,337788,772030,no_split,wide,individual,1,0.46297359466552734
0,0.0,0.4090255762395576,0.3262163715959644,0.34441318900407636,0.359957413617866,0.3740081197757168,0.3903741489596009,0.40975470388874735,0.4319954316636778,0.4633872284683235,0.5152587915439858,0.8952189072037353,0.9838502673796792,0.4194430183094372,0.0,0.9731720430107527,50,1163,3487,772030,no_split,wide,individual,1,0.4627211093902588
1,1.0,0.42997308137466683,0.3334553179743886,0.35662666303743557,0.37610369264297916,0.3950923333945199,0.41442715178784173,0.4353986420079402,0.46165838335948856,0.49552840885942573,0.545498463799083,0.9371115116215052,0.9623783783783784,0.4194430183094372,0.0,0.9731720430107527,50,1163,3487,772030,no_split,wide,individual,1,0.4627211093902588
0,0.0,0.40781921110739505,0.3436784941898306,0.36126726120902264,0.37599390602821975,0.3884122374137272,0.40121911042332703,0.41451427056892143,0.43032705310885455,0.44949184361403827,0.4794112554176842,0.730135433349375,0.9848167539267015,0.4128620636437881,0.0,0.978994708994709,50,1163,3580,772030,no_split,wide,individual,1,0.4691579341888428
1,1.0,0.41801278468363334,0.35028695037967883,0.3681363474414297,0.38393771103913654,0.3976130335099007,0.41130826642990814,0.4256183141164895,0.44163517212267855,0.4624970754545268,0.495125757020187,0.855250584281473,0.973048128342246,0.4128620636437881,0.0,0.978994708994709,50,1163,3580,772030,no_split,wide,individual,1,0.4691579341888428
0,0.0,0.47284052734992316,0.371180282423983,0.3952762921826115,0.4159686043954243,0.4350965052573524,0.4546733863906265,0.4762275249244727,0.5029018451222905,0.5384316847423133,0.5972748435070874,1.1980684864947038,0.9607692307692308,0.4817454912093091,0.0,0.9411602209944752,50,1163,3625,772030,no_split,wide,individual,1,0.4627535343170166
1,1.0,0.490749399111577,0.3784884748660396,0.409600280362394,0.43236460788243286,0.4536257634582232,0.4754083363857778,0.4991488291124081,0.5279511360652447,0.5638896051682708,0.6227960318342568,1.156046719091435,0.9213333333333333,0.4817454912093091,0.0,0.9411602209944752,50,1163,3625,772030,no_split,wide,individual,1,0.4627535343170166
0,0.0,0.5466971745212654,0.43471022399475034,0.4644623946304636,0.4876914585262111,0.5092799988812485,0.5313779635509998,0.5560758493344731,0.5834315982791088,0.6211246264669299,0.677559916259066,1.2074294121850042,0.992565445026178,0.5535174949920998,0.0,0.9895538057742782,50,1163,3754,772030,no_split,wide,individual,1,0.4772834777832031
1,1.0,0.5603737118864647,0.44299673442430626,0.4750175333622055,0.5001641098735375,0.5245167878165522,0.5482395246313332,0.5718819348177634,0.6007082503792387,0.6383577399656034,0.6919049639474202,1.238639103769273,0.9865263157894737,0.5535174949920998,0.0,0.9895538057742782,50,1163,3754,772030,no_split,wide,individual,1,0.4772834777832031
0,0.0,0.4163290586896193,0.33895558582348584,0.3591744793353723,0.3743095790741652,0.3888570284376736,0.40344925078162996,0.42000089213470265,0.4403360672548008,0.4677663344610664,0.5080183979565154,0.944026610999847,0.9734391534391534,0.42064866012838903,0.0,0.9669656992084432,50,1163,3910,772030,no_split,wide,individual,1,0.47773170471191406
1,1.0,0.42494552682274417,0.34245905793858294,0.36316246164303123,0.38006975947105076,0.39593756018751053,0.413250295218453,0.4308794565781709,0.45239627593904785,0.4784405814250513,0.5215308697735049,0.9801279468633284,0.9605263157894737,0.42064866012838903,0.0,0.9669656992084432,50,1163,3910,772030,no_split,wide,individual,1,0.47773170471191406
0,0.0,0.4043371177449769,0.33713853959305656,0.3522615265934031,0.36473726033544446,0.37753613342083314,0.3909046248214704,0.40656830988810166,0.4255499338098717,0.44901083696875776,0.48830704256294927,0.7925654749499186,0.982421052631579,0.40958112425871396,0.0,0.974353562005277,50,1163,4222,772030,no_split,wide,individual,1,0.4789297580718994
1,1.0,0.41485287683866134,0.3464918385386878,0.3631028879131583,0.37773395659663134,0.39120115637881325,0.4052511613567328,0.42000288999479485,0.43733879801958125,0.46038878148370455,0.4953225051605711,0.9452803359278591,0.9662433862433862,0.40958112425871396,0.0,0.974353562005277,50,1163,4222,772030,no_split,wide,individual,1,0.4789297580718994
0,0.0,0.45342412867075105,0.34559630747487596,0.3691749526532808,0.3900591482889511,0.4090316924070951,0.42917572937931325,0.45255682187517887,0.48121400379285767,0.5215090655431212,0.5922101964738992,1.3794509717179408,0.9503703703703704,0.4637812709830929,0.0,0.9255026455026455,50,1163,4264,772030,no_split,wide,individual,1,0.4826805591583252
1,1.0,0.47413841329543466,0.35919890627940587,0.38706319290167557,0.4099018945989168,0.43144061749490825,0.45467947591854097,0.4798643664968502,0.5092931143388132,0.549038437915392,0.6146923728987245,1.5202492754943773,0.9006349206349207,0.4637812709830929,0.0,0.9255026455026455,50,1163,4264,772030,no_split,wide,individual,1,0.4826805591583252
0,0.0,0.4312709046462542,0.3689855475929504,0.38479831291348016,0.3973344364206762,0.40911139542240343,0.42100734737146794,0.434396358544053,0.45044669984309094,0.4716248150353377,0.5057985953359727,0.9085707851968637,0.9827659574468085,0.43654400035933616,0.0,0.9782933333333333,50,1163,5281,772030,no_split,wide,individual,1,0.4860193729400635
1,1.0,0.4418452944452153,0.3739478579265468,0.3913613741521024,0.4052439630621309,0.41892560068236173,0.43180792163120807,0.446100462892448,0.46420215723608865,0.48712310822293836,0.5217046976014514,0.9521333644673217,0.9737967914438502,0.43654400035933616,0.0,0.9782933333333333,50,1163,5281,772030,no_split,wide,individual,1,0.4860193729400635
0,0.0,0.4617630761772191,0.3731008391719514,0.39381924739427027,0.41077052680391846,0.42862514905389054,0.44639330211231687,0.46612251341794925,0.4893804341997356,0.5198016049741314,0.5712618730501873,1.2923660556230372,0.993015873015873,0.4710128247505217,0.0,0.98784,50,1163,5332,772030,no_split,wide,individual,1,0.48216676712036133
1,1.0,0.48041176281694203,0.38037748533837673,0.40670558265904627,0.42697727077107434,0.44671094419766216,0.46747383560092653,0.48815210668006476,0.513539678569746,0.5449676709005388,0.5978737611064475,1.0569997251910255,0.9825806451612903,0.4710128247505217,0.0,0.98784,50,1163,5332,772030,no_split,wide,individual,1,0.48216676712036133
