,congruency,mean_rt,qu10_rt,qu20_rt,qu30_rt,qu40_rt,qu50_rt,qu60_rt,qu70_rt,qu80_rt,qu90_rt,qu100_rt,mean_acc,mean_rt_overall,nonconvergent_trials,accuracy_overall,n_posterior_draws,condition,id,slurm_id,split,spacing,estimation_level,number_parts,time_post_sampling_sec
0,0.0,0.4226345551721647,0.34188271209841464,0.35868767916243816,0.3737960955671787,0.3893770293398288,0.4055272742305821,0.4235814900685957,0.44606929511243176,0.4757819468014998,0.52701186846376,1.0310275326109206,0.9732631578947368,0.42554980443580503,0.0,0.9636507936507936,50,1148,1108,772024,no_split,wide,individual,1,0.48208022117614746
1,1.0,0.42849606698948417,0.34856451055782345,0.3668117627274071,0.38294718265858285,0.3984550704608771,0.4140290991090795,0.4317105824206529,0.4520063427137994,0.48156745295806064,0.5260912457486397,1.0755989240017154,0.953936170212766,0.42554980443580503,0.0,0.9636507936507936,50,1148,1108,772024,no_split,wide,individual,1,0.48208022117614746
0,0.0,0.4441129653688893,0.3578846804087948,0.3789555538474573,0.39629151835307036,0.41342258215684474,0.43084514911242616,0.4500301070425737,0.471496993273114,0.5003210328710594,0.5463158330586344,1.0187373237722235,0.9667724867724867,0.4525734261147672,0.0,0.9571578947368421,50,1148,1507,772024,no_split,wide,individual,1,0.4709756374359131
1,1.0,0.4609452956486464,0.36081165123616676,0.38516046210618604,0.4047527725569422,0.4242272316735928,0.4428560151339508,0.4651245971616142,0.4922755196266586,0.5276720823979131,0.5865861581869937,1.0075096018296914,0.9476439790575916,0.4525734261147672,0.0,0.9571578947368421,50,1148,1507,772024,no_split,wide,individual,1,0.4709756374359131
0,0.0,0.45193060239489147,0.3583938846322024,0.38233308333032845,0.40114183509853324,0.4187018403774019,0.43702621742568215,0.45699189363861514,0.4808673219352397,0.5118710390444625,0.5647177650374461,1.0347880557549283,0.9825263157894737,0.46148133929862334,0.0,0.9765879265091864,50,1148,1538,772024,no_split,wide,individual,1,0.4714486598968506
1,1.0,0.4709820723442207,0.3645884665072577,0.3926742225678119,0.4143615293103716,0.43442211284699295,0.4559027440971343,0.47883997724130867,0.5055760214983224,0.5406627994321825,0.5951178895039463,1.2263317713357544,0.9706806282722513,0.46148133929862334,0.0,0.9765879265091864,50,1148,1538,772024,no_split,wide,individual,1,0.4714486598968506
0,0.0,0.4690619494195112,0.37646672046469104,0.400859676493209,0.4196375757824748,0.4367763332055359,0.45424989258391435,0.4739131013758098,0.4985539523659023,0.5298574881649952,0.5789339062882305,1.0766178265469895,0.9857608695652174,0.47306523095703734,0.0,0.9816756756756757,50,1148,1582,772024,no_split,wide,individual,1,0.47130465507507324
1,1.0,0.47702546645652555,0.38391959415264093,0.40933471935163146,0.42787800177315677,0.44543435529332914,0.4640322424730231,0.4837819449078157,0.5078306328179768,0.5380547821212648,0.5863894680209777,1.0772248960738646,0.9776344086021506,0.47306523095703734,0.0,0.9816756756756757,50,1148,1582,772024,no_split,wide,individual,1,0.47130465507507324
0,0.0,0.4415625696037021,0.3577098567325106,0.378290859750971,0.39461739654780764,0.4096271925857468,0.42537177038949703,0.4436425450546365,0.46488093076714015,0.49537221465227893,0.544261823201141,1.080535145198982,0.9757068062827225,0.45245267053668337,0.0,0.9519060052219321,50,1148,1583,772024,no_split,wide,individual,1,0.47214508056640625
1,1.0,0.463286052193972,0.3705980820829862,0.3948982165907464,0.4149958911421587,0.4333743945475827,0.451779987416816,0.47125521737503046,0.4943315691863009,0.5225666830462736,0.5700295717810143,0.9928946227679012,0.9282291666666667,0.45245267053668337,0.0,0.9519060052219321,50,1148,1583,772024,no_split,wide,individual,1,0.47214508056640625
0,0.0,0.563984064360022,0.40659387714254575,0.4414923990052227,0.4713319594526863,0.5026679470859399,0.5333831583696913,0.567940027164849,0.6091022311998815,0.6647598531470638,0.7610632367349459,1.504252528243852,0.9648587570621469,0.5712436552324028,0.0,0.9592857142857143,50,1148,1597,772024,no_split,wide,individual,1,0.4773671627044678
1,1.0,0.5781150326891483,0.4105533248396738,0.44996033105770344,0.4832843214071795,0.515166428000564,0.5478077496954983,0.5850554782707781,0.6299163605698576,0.6881145752226643,0.7799394746861728,1.5498847026754188,0.9540106951871657,0.5712436552324028,0.0,0.9592857142857143,50,1148,1597,772024,no_split,wide,individual,1,0.4773671627044678
0,0.0,0.4081390972022026,0.33704575950711113,0.3569419215366613,0.3722461447172193,0.38744915136560043,0.4015463676139023,0.4159828460077314,0.43212577898781196,0.4533868036297889,0.486267713259037,1.00043377413558,0.9883157894736843,0.41855287563676974,0.0,0.983377308707124,50,1148,1601,772024,no_split,wide,individual,1,0.4750339984893799
1,1.0,0.4290217534281336,0.34312235957901277,0.36567902379788225,0.3841001959151922,0.40101610366764195,0.4177192406017712,0.4374224071055636,0.4599989252533559,0.4870800230225813,0.5286540840876329,0.8689682716629303,0.9784126984126984,0.41855287563676974,0.0,0.983377308707124,50,1148,1601,772024,no_split,wide,individual,1,0.4750339984893799
0,0.0,0.4839179207885468,0.3526055615724811,0.379794582187818,0.40399147194513546,0.42934453728390765,0.4553447922670335,0.4854087635587759,0.5200713109602147,0.5705069019692732,0.6539747960649163,1.4226071604816732,0.9711578947368421,0.49176065098562916,0.0,0.965,50,1148,1614,772024,no_split,wide,individual,1,0.47672414779663086
1,1.0,0.49960338118271147,0.357529345366246,0.39054310174419876,0.41761098907682725,0.44501034078677054,0.47510462896726946,0.5066962173048465,0.5437661747177716,0.5935525598627754,0.6755017562906213,1.3523497433784633,0.9588421052631579,0.49176065098562916,0.0,0.965,50,1148,1614,772024,no_split,wide,individual,1,0.47672414779663086
0,0.0,0.4295435579336906,0.3769527333826092,0.39123152286254964,0.40273772735411867,0.41275044890811613,0.4232340411715123,0.4356966852423248,0.4477857427927007,0.4641488042304727,0.48931048809062605,0.748186160057058,0.9913684210526316,0.4356191459984654,0.0,0.9906036745406824,50,1148,161753,772024,no_split,wide,individual,1,0.48001694679260254
1,1.0,0.4416629247016446,0.3800352830677108,0.39597209002707784,0.408476288595436,0.4212788633070361,0.43427447072476144,0.4469442242070509,0.46204560370722086,0.4811787260789722,0.5151263656706901,0.75335421650536,0.9898429319371728,0.4356191459984654,0.0,0.9906036745406824,50,1148,161753,772024,no_split,wide,individual,1,0.48001694679260254
0,0.0,0.47285111288043546,0.3733220915100564,0.3966660928415687,0.4167375906397595,0.4361907579192645,0.45565420113292004,0.4777664134582426,0.5049321101354629,0.5402411208086795,0.5939728107531154,1.0218293310325117,0.9813829787234043,0.4770944069126774,0.0,0.9748284960422163,50,1148,1638,772024,no_split,wide,individual,1,0.4814023971557617
1,1.0,0.48127105234755424,0.38004588069860823,0.40477740164395265,0.4251859424230137,0.44523169304332993,0.46663788793679895,0.4882291183828007,0.5144315417887544,0.5465122143902207,0.601463167748611,1.175059559928693,0.9683769633507854,0.4770944069126774,0.0,0.9748284960422163,50,1148,1638,772024,no_split,wide,individual,1,0.4814023971557617
0,0.0,0.3992590835694129,0.3271904437424984,0.34572690896124975,0.3605947545338277,0.37441597695661666,0.388235806219247,0.4035488220110866,0.4222401127118658,0.44504407208663976,0.4841258115013129,0.8487226038954996,0.9757894736842105,0.40642212183797427,0.0,0.9678100263852243,50,1148,1657,772024,no_split,wide,individual,1,0.4783303737640381
1,1.0,0.41362305977991426,0.3324255374114602,0.35268662601941764,0.37004088809327107,0.38562681973176044,0.4021034100687099,0.41962099135202935,0.4402887580545667,0.4677372051478366,0.5108095909505239,0.9697300610172132,0.9597883597883597,0.40642212183797427,0.0,0.9678100263852243,50,1148,1657,772024,no_split,wide,individual,1,0.4783303737640381
0,0.0,0.46611353726739196,0.37814626532402945,0.397834654437599,0.4144070303391563,0.4314405558716389,0.44826910839792633,0.4682366679441078,0.49229512655765817,0.5220435525591783,0.5746130688668655,1.0170092552151295,0.9867021276595744,0.47312892487763697,0.0,0.9812698412698413,50,1148,1663,772024,no_split,wide,individual,1,0.4805002212524414
1,1.0,0.48007046630251105,0.3826816158159667,0.4068415194583224,0.4252161438313689,0.4434052008288242,0.463246033127502,0.48603978876497894,0.5127979845908704,0.5466306778774309,0.5993925212032255,1.1755848723773588,0.9758947368421053,0.47312892487763697,0.0,0.9812698412698413,50,1148,1663,772024,no_split,wide,individual,1,0.4805002212524414
0,0.0,0.5142336089057581,0.40200525249769836,0.43062126012752877,0.45340259216509005,0.4736433981453185,0.49627388414369566,0.5206277413197667,0.5484468507347062,0.5867574450110989,0.6501914255687662,1.275326609414105,0.968494623655914,0.5211538378891728,0.0,0.9611260053619303,50,1148,1761,772024,no_split,wide,individual,1,0.4805886745452881
1,1.0,0.5280370603004836,0.40543312535346765,0.4359037593530931,0.46051702507795284,0.4843707286926551,0.5090047442816347,0.5359915121794059,0.5683480276416629,0.6105746038422445,0.6765272367036479,1.284412975575231,0.9537967914438503,0.5211538378891728,0.0,0.9611260053619303,50,1148,1761,772024,no_split,wide,individual,1,0.4805886745452881
0,0.0,0.4483709260818404,0.34600037365216324,0.3727669744693245,0.3932123744131019,0.4117327145165125,0.43110864427045703,0.4518235422597633,0.4793515831727184,0.5141828151357736,0.5708457943308639,1.130034228931998,0.9482722513089005,0.45176060505454224,0.0,0.9407329842931937,50,1148,1768,772024,no_split,wide,individual,1,0.4795808792114258
1,1.0,0.4551502840272439,0.34822276680525455,0.37434534493267296,0.3957614620657247,0.4162760929683161,0.4363553954349966,0.4606424987462389,0.4889538792155743,0.5264108058502774,0.584591667463264,1.2098556609760405,0.9331937172774869,0.45176060505454224,0.0,0.9407329842931937,50,1148,1768,772024,no_split,wide,individual,1,0.4795808792114258
0,0.0,0.3774965263406247,0.3031725127550055,0.3223446826901575,0.3381226314326717,0.3528462225032479,0.3675294348336878,0.38247764044344323,0.40130189830035573,0.4262944395462242,0.4650946353100536,0.9577672627488986,0.9606382978723405,0.38061747294023446,0.0,0.9533510638297872,50,1148,1813,772024,no_split,wide,individual,1,0.47600889205932617
1,1.0,0.3837384195398442,0.30396159649625054,0.32412895519523344,0.3406789741520408,0.3554156158924733,0.37114857820881875,0.388069363289911,0.4079898210700984,0.4346256728319484,0.4801724948281667,0.8642394271222075,0.946063829787234,0.38061747294023446,0.0,0.9533510638297872,50,1148,1813,772024,no_split,wide,individual,1,0.47600889205932617
0,0.0,0.38900177198431146,0.3141778940006774,0.3314419664814302,0.3471511815131635,0.3611478744530086,0.3765197804992342,0.3933479455465664,0.4127773584000389,0.43739516675397067,0.47967013080365983,0.9028996329007136,0.9805263157894737,0.39275517234693125,0.0,0.9761154855643045,50,1148,1821,772024,no_split,wide,individual,1,0.49149227142333984
1,1.0,0.39648892139875197,0.3157708252327145,0.3350491489464987,0.352245190703745,0.36759365144031836,0.38283206361876687,0.4000544136800087,0.4209323347615311,0.4500377566466887,0.49585260468044,0.8211569373818809,0.9717277486910995,0.39275517234693125,0.0,0.9761154855643045,50,1148,1821,772024,no_split,wide,individual,1,0.49149227142333984
0,0.0,0.4393833529514358,0.3529991585778383,0.37367488052386316,0.3930559167318002,0.41006896122920833,0.4275717355116956,0.44650228359781446,0.4686667842599138,0.4959801660295854,0.5410417076860631,1.1095948468140433,0.9847120418848168,0.44302033326317725,0.0,0.9833510638297872,50,1148,275,772024,no_split,wide,individual,1,0.4930260181427002
1,1.0,0.4467752696931373,0.35401817498008653,0.376450783981499,0.39463748843667057,0.4123763214117486,0.4308230559008086,0.45250920252657334,0.47564428921604035,0.5068337901405703,0.5627410776418097,1.0641342566582332,0.981945945945946,0.44302033326317725,0.0,0.9833510638297872,50,1148,275,772024,no_split,wide,individual,1,0.4930260181427002
0,0.0,0.3787128662136362,0.30591530912005965,0.3211916496449924,0.33543339658648386,0.3491820255934292,0.3637019566438524,0.37976283529988697,0.4000502637221681,0.4266663162294288,0.47106874580434044,0.9136252828444765,0.9773404255319149,0.38408784906263715,0.0,0.9716710875331565,50,1148,3286,772024,no_split,wide,individual,1,0.48688673973083496
1,1.0,0.3894343928489448,0.3098622035492958,0.3270153054761512,0.34245746370437813,0.3577532130432968,0.37379488558276147,0.3918791069066848,0.41417868917494227,0.44435171882989255,0.48878904074038776,0.9936239996381095,0.966031746031746,0.38408784906263715,0.0,0.9716710875331565,50,1148,3286,772024,no_split,wide,individual,1,0.48688673973083496
0,0.0,0.4568145705779771,0.3640361866225955,0.3873852430651364,0.406642827593302,0.4238763285676212,0.44301990979177763,0.4629466347021792,0.48552958349757447,0.5151411581342955,0.5668742039232717,1.0543553750467853,0.9812698412698413,0.46441720040450435,0.0,0.9756200527704485,50,1148,3292,772024,no_split,wide,individual,1,0.4928419589996338
1,1.0,0.47197981638983927,0.3685336306584819,0.3941334638419371,0.4155495935050651,0.43585051399100444,0.4558560428451952,0.478239987305491,0.5055344803165127,0.5394360005404629,0.596994537780357,1.095663512598349,0.97,0.46441720040450435,0.0,0.9756200527704485,50,1148,3292,772024,no_split,wide,individual,1,0.4928419589996338
0,0.0,0.4508129255175402,0.37194918401383764,0.3926037703028931,0.40879741757185967,0.42531945477576044,0.44211798780742606,0.45852652300903013,0.4783406283023787,0.5035714113941907,0.5416150557703854,0.8519930467946895,0.9872631578947368,0.4557734611962322,0.0,0.9866141732283464,50,1148,337788,772024,no_split,wide,individual,1,0.487682580947876
1,1.0,0.4607080254839364,0.37653522838639814,0.3979297242322699,0.41495087365080285,0.4311857326538095,0.4484271623297662,0.46673001122882374,0.48835340717340564,0.5171644636599437,0.5609871836658878,0.8814158372624388,0.9859685863874346,0.4557734611962322,0.0,0.9866141732283464,50,1148,337788,772024,no_split,wide,individual,1,0.487682580947876
0,0.0,0.40623080576965254,0.326596195318618,0.3446520966050338,0.36045009233901915,0.37506832069046947,0.39047198847423736,0.4075448311216478,0.4294249161652767,0.45738810596424134,0.5060064122637441,1.0182562871205774,0.9834224598930481,0.41789486534005493,0.0,0.9729032258064516,50,1148,3487,772024,no_split,wide,individual,1,0.48606109619140625
1,1.0,0.429685022851759,0.3345038886018839,0.35597428003834386,0.3756641094778334,0.3941172498502142,0.4138641445731358,0.4350676935376106,0.46090087918562794,0.4940773823551634,0.5480662579536287,1.0430655415995667,0.9622702702702702,0.41789486534005493,0.0,0.9729032258064516,50,1148,3487,772024,no_split,wide,individual,1,0.48606109619140625
0,0.0,0.4112981990395884,0.3463815332556027,0.3642760117789948,0.37925376237659814,0.3917197797779088,0.4044696232908068,0.41782511657447147,0.4335732487620288,0.45412762987018224,0.48457342944383586,0.7936769856617905,0.981151832460733,0.41575493761114946,0.0,0.978994708994709,50,1148,3580,772024,no_split,wide,individual,1,0.48682141304016113
1,1.0,0.42030700748905403,0.35090804930659464,0.3698074850771981,0.38503594102043437,0.39874488504500566,0.4127216903205235,0.42748424804882573,0.44379600626928956,0.46470434982768255,0.4994448197697626,0.8228509038657733,0.9767914438502674,0.41575493761114946,0.0,0.978994708994709,50,1148,3580,772024,no_split,wide,individual,1,0.48682141304016113
0,0.0,0.4780174628222027,0.36966509410386994,0.39639937812182297,0.4178405211086232,0.4362390010884334,0.45678368723262014,0.4795704163508184,0.5080040103119122,0.5469553116404551,0.6141919131948675,1.347018047601273,0.9595604395604396,0.4852593334778523,0.0,0.9430939226519337,50,1148,3625,772024,no_split,wide,individual,1,0.48063135147094727
1,1.0,0.4925816693630092,0.37885469736738403,0.4084376682884462,0.4316310940231624,0.4540608868226229,0.47743653887762616,0.5003391570212916,0.5285534273286999,0.5668397757563112,0.6251444781433022,1.2168455326203138,0.9264444444444444,0.4852593334778523,0.0,0.9430939226519337,50,1148,3625,772024,no_split,wide,individual,1,0.48063135147094727
0,0.0,0.5483563761047656,0.4376081930591137,0.4660688198211134,0.4892325040216001,0.5119950782914152,0.534357126363326,0.5582245927940694,0.585830089155722,0.6228364774175932,0.6779878019950561,1.2731692011844202,0.9918324607329843,0.5539552032985519,0.0,0.9899737532808399,50,1148,3754,772024,no_split,wide,individual,1,0.48720741271972656
1,1.0,0.5595834980038843,0.44128119308613734,0.4728830817650456,0.49852907497515236,0.5235931657349778,0.5463498237394402,0.5718872742553084,0.6001229553307241,0.6389973541633717,0.6960037716597332,1.1156409260230586,0.9881052631578947,0.5539552032985519,0.0,0.9899737532808399,50,1148,3754,772024,no_split,wide,individual,1,0.48720741271972656
0,0.0,0.41572643278046023,0.3402986403937724,0.3580731336773002,0.3729517806534129,0.38829141881387924,0.4028843110032644,0.4188414723721991,0.43888443975407626,0.465020904979654,0.5084846097947457,0.9284123115119459,0.9771428571428571,0.419334035296983,0.0,0.970448548812665,50,1148,3910,772024,no_split,wide,individual,1,0.48317527770996094
1,1.0,0.4229226504318397,0.34202776540379304,0.3612353587567297,0.3770015830428493,0.39208917902505175,0.40743900168889524,0.4249170568440786,0.44676134702735054,0.47661628322209715,0.5253860231330613,0.9637572486647925,0.9637894736842105,0.419334035296983,0.0,0.970448548812665,50,1148,3910,772024,no_split,wide,individual,1,0.48317527770996094
0,0.0,0.4095699849289141,0.33743239824112564,0.35502301645945605,0.36826378760385625,0.38141082604093085,0.39504501227915256,0.4110398673396164,0.43135278063385235,0.45612328987545386,0.4991294954422441,0.9290865393214772,0.9817894736842105,0.4110669870480677,0.0,0.9716094986807388,50,1148,4222,772024,no_split,wide,individual,1,0.4851064682006836
1,1.0,0.4125719098133543,0.34592794464477145,0.36281926290009103,0.37626513457225247,0.38908523109265625,0.40274903605492196,0.4167506735120339,0.4343679394895682,0.45739126594151924,0.4910541716196364,0.8398082301031307,0.9613756613756613,0.4110669870480677,0.0,0.9716094986807388,50,1148,4222,772024,no_split,wide,individual,1,0.4851064682006836
0,0.0,0.4582384094704854,0.3493437946519222,0.3732262709540996,0.3923894663607404,0.41202945978168193,0.4320674680087828,0.45597638083820285,0.48586417305912205,0.5301608648921263,0.604062271516013,1.2558810582639224,0.9524867724867725,0.46643542020610046,0.0,0.9244973544973545,50,1148,4264,772024,no_split,wide,individual,1,0.48268580436706543
1,1.0,0.47463243094171537,0.35874029732046736,0.386923997233441,0.4089686620256478,0.43198155791757065,0.45531874837989045,0.4798621721898152,0.5094662997361082,0.5511376712293641,0.6152933655412606,1.1835908345984862,0.8965079365079365,0.46643542020610046,0.0,0.9244973544973545,50,1148,4264,772024,no_split,wide,individual,1,0.48268580436706543
0,0.0,0.4334748457361949,0.3740129668437783,0.38864981982784674,0.4002881033746192,0.41150311707044257,0.4231556155574835,0.4355899628829298,0.45039834061992423,0.47258980729299604,0.5063579392921687,0.7987565516511274,0.9854255319148936,0.4383204156858803,0.0,0.97904,50,1148,5281,772024,no_split,wide,individual,1,0.48550915718078613
1,1.0,0.44319189777433415,0.3775176729952767,0.39425436148542886,0.4076635169724938,0.4211099956790877,0.4343222119368447,0.4486771371689311,0.46515490759332806,0.4870493478362015,0.5206268935379657,0.8076270578948969,0.972620320855615,0.4383204156858803,0.0,0.97904,50,1148,5281,772024,no_split,wide,individual,1,0.48550915718078613
0,0.0,0.461300925521174,0.37546973151839746,0.3969280796843172,0.41392613080542756,0.4306459833366885,0.4480400931065064,0.46675151314474184,0.48783318302426376,0.5170422938890951,0.5630725992164541,1.0218663102986776,0.9898412698412699,0.4686758894722712,0.0,0.9877333333333334,50,1148,5332,772024,no_split,wide,individual,1,0.4850778579711914
1,1.0,0.4761698044548376,0.38008716456125224,0.4038701652720268,0.42314413822802344,0.44178849401807047,0.460815549094319,0.4832130285747017,0.5092171182157941,0.5401609876976627,0.588392059077969,0.9986156674826204,0.9855913978494624,0.4686758894722712,0.0,0.9877333333333334,50,1148,5332,772024,no_split,wide,individual,1,0.4850778579711914
0,0.0,0.44604717434867447,0.36069096579729487,0.3831724468272113,0.4004801270067897,0.41614913162317196,0.43244528783247993,0.4508102596810457,0.4720916164035464,0.49944046947188,0.5465731027231342,0.9639988080226771,0.9766315789473684,0.4560325237556799,0.0,0.9663324538258575,50,1148,5575,772024,no_split,wide,individual,1,0.48797154426574707
1,1.0,0.46607070569923037,0.3683553199280828,0.3927003802999615,0.4129993038505107,0.4323957384493501,0.4519658342661627,0.47321844155960097,0.4984268184439311,0.5308026408258026,0.5787993223200266,1.1098151673647538,0.9559788359788359,0.4560325237556799,0.0,0.9663324538258575,50,1148,5575,772024,no_split,wide,individual,1,0.48797154426574707
0,0.0,0.4475978624096768,0.3599973994944058,0.38023879598169064,0.3969593445924114,0.4125652122563424,0.42949955019427943,0.4493993591352213,0.47241531949230503,0.5036438975986648,0.5582521006545211,1.0598498116490054,0.9616393442622951,0.45164702056144407,0.0,0.9502964959568733,50,1148,5731,772024,no_split,wide,individual,1,0.48459649085998535
1,1.0,0.4555884883368345,0.3650258679445326,0.3874766940353221,0.4055889453982285,0.4218935455732841,0.4390389632228172,0.45810975421102973,0.4820803053223524,0.515325688176296,0.5667016655249943,0.9778422190676692,0.9392553191489361,0.45164702056144407,0.0,0.9502964959568733,50,1148,5731,772024,no_split,wide,individual,1,0.48459649085998535
0,0.0,0.4295237597935481,0.3503587864274867,0.37360969381535625,0.390572781072577,0.4056500434848676,0.4203662361091518,0.4369028267978354,0.4565098417367027,0.481869435833573,0.5187461193223332,0.8363890590444524,0.9904255319148936,0.44057757321332963,0.0,0.976816976127321,50,1148,5761,772024,no_split,wide,individual,1,0.48540568351745605
1,1.0,0.4515729008478214,0.3647285949890119,0.38966134719025913,0.4095461736917057,0.42670197175268865,0.4438218502960791,0.4621395771322303,0.4829835481881259,0.509135182531987,0.5484561923178093,0.9138063084315667,0.9632804232804233,0.44057757321332963,0.0,0.976816976127321,50,1148,5761,772024,no_split,wide,individual,1,0.48540568351745605
0,0.0,0.4305868699901626,0.33243998763267424,0.35757404298577716,0.37697135025408546,0.39605046368740937,0.4141522826536021,0.43439721179860885,0.4592058909785278,0.49261366439065424,0.5494814666576024,1.081696835344988,0.9176041666666667,0.43350008944566404,0.0,0.9120833333333334,50,1148,5803,772024,no_split,wide,individual,1,0.49278974533081055
1,1.0,0.4364133089011654,0.33508648766629145,0.35974696133254097,0.3795679618509901,0.39834661805363636,0.41757513555334447,0.4393265583819742,0.4684026629375092,0.5038843744842516,0.5596712226823556,1.1896210829716503,0.9065625,0.43350008944566404,0.0,0.9120833333333334,50,1148,5803,772024,no_split,wide,individual,1,0.49278974533081055
0,0.0,0.4973394437074151,0.3849006380276391,0.4136286316415085,0.4367566615700227,0.45758609943325146,0.4783432978972847,0.5021122047304547,0.5292046416610814,0.5676402240754984,0.6331253079809763,1.384739204355301,0.9726041666666667,0.510207426282273,0.0,0.9616230366492147,50,1148,5815,772024,no_split,wide,individual,1,0.48957204818725586
1,1.0,0.5232108613052872,0.39335121954739555,0.4253365986375643,0.45423381933374896,0.4790440772396106,0.5033509161020933,0.5312746836867466,0.5657154949625866,0.6095817424572366,0.6738322604628063,1.2720568606843967,0.9505263157894737,0.510207426282273,0.0,0.9616230366492147,50,1148,5815,772024,no_split,wide,individual,1,0.48957204818725586
0,0.0,0.41721577458452835,0.3529469310531425,0.36816691818758995,0.3810529475371728,0.3935690104671016,0.40611286619293663,0.4197492239903859,0.4374608985212155,0.4597150807377146,0.4947030910969382,0.907854884134142,0.989578947368421,0.42619715723754514,0.0,0.9854497354497355,50,1148,6055,772024,no_split,wide,individual,1,0.5008227825164795
1,1.0,0.4352740865145302,0.3591556765571059,0.37706309931132964,0.3931093005133451,0.40831399484588277,0.42445033492943773,0.44184712664612946,0.4613128279506971,0.48662725755432973,0.5265850202289443,0.8337973362918315,0.9812765957446808,0.42619715723754514,0.0,0.9854497354497355,50,1148,6055,772024,no_split,wide,individual,1,0.5008227825164795
0,0.0,0.46563067093060345,0.35557595957732563,0.3815898325594576,0.40340543864881817,0.4243332943752278,0.4452099084405121,0.46979375579094557,0.4973316289279608,0.5357338547491213,0.6021688294261934,1.2590572529576303,0.9582702702702702,0.470007177870618,0.0,0.9496514745308311,50,1148,6109,772024,no_split,wide,individual,1,0.4901750087738037
1,1.0,0.4743138469339303,0.3600548223130005,0.3874150698720472,0.4115711857156827,0.43203816296972297,0.4545284226845161,0.4783407931734489,0.5081100781106576,0.5471875625397568,0.6123334157872561,1.3612723100356623,0.9411702127659575,0.470007177870618,0.0,0.9496514745308311,50,1148,6109,772024,no_split,wide,individual,1,0.4901750087738037
0,0.0,0.3891201997207532,0.3288226320763638,0.3443874967795365,0.3566719334325534,0.36855510749484,0.3800778336489209,0.39253245364029465,0.40797277948316607,0.4289480136116329,0.4595655497834232,0.7673801413363552,0.9855497382198953,0.4002347325669728,0.0,0.9757180156657963,50,1148,6214,772024,no_split,wide,individual,1,0.49076128005981445
1,1.0,0.41129137722128495,0.3343530464550485,0.35265081703410966,0.3682226849162923,0.3841117561384918,0.3993903935022011,0.41640057664812263,0.43647189465611425,0.46289313756543327,0.5040186567053065,0.8690248116892568,0.9659375,0.4002347325669728,0.0,0.9757180156657963,50,1148,6214,772024,no_split,wide,individual,1,0.49076128005981445
0,0.0,0.45914752017548816,0.35597442184483863,0.3848076966216988,0.4055865689256542,0.4261372645755552,0.4464961831273456,0.4664898278246158,0.49112819889366094,0.5244561141524606,0.5781801598075238,1.2599142262014438,0.9601058201058201,0.46219054546918953,0.0,0.9528571428571428,50,1148,6253,772024,no_split,wide,individual,1,0.49397730827331543
1,1.0,0.465233570762891,0.35973843224156965,0.38857173510962456,0.4113388961784054,0.4316177119042566,0.4528475888838518,0.4735660848486459,0.499939499665537,0.5331725573860174,0.5864697980734684,1.1299090718872336,0.9456084656084656,0.46219054546918953,0.0,0.9528571428571428,50,1148,6253,772024,no_split,wide,individual,1,0.49397730827331543
0,0.0,0.4554634809405202,0.3746600330935372,0.39681934163545785,0.4141469964340655,0.4302874708965302,0.4455527184079285,0.4624722440699983,0.4820084282478652,0.5082237840890814,0.5497560726531938,0.9300623448387269,0.9822105263157894,0.4598211650186195,0.0,0.9776902887139107,50,1148,6262,772024,no_split,wide,individual,1,0.4921739101409912
1,1.0,0.4641560339968336,0.3765934040468608,0.399971522154953,0.4196818244729688,0.43649665642313557,0.4540605828086034,0.4721313435767992,0.49311440993249417,0.5212622547363014,0.5641706616674599,0.94745158625693,0.9731937172774869,0.4598211650186195,0.0,0.9776902887139107,50,1148,6262,772024,no_split,wide,individual,1,0.4921739101409912
0,0.0,0.493857863182987,0.39841067923052764,0.42128216685417863,0.4408192050899201,0.45861376060266723,0.4778130693812067,0.49915296599297587,0.5250944712395624,0.5581877203605357,0.608869130485138,1.1417318054559775,0.9933684210526316,0.5026793027592533,0.0,0.9858421052631579,50,1148,6361,772024,no_split,wide,individual,1,0.48650169372558594
1,1.0,0.5115007423355197,0.416318642139107,0.4425480944552361,0.4627426464985289,0.4817625605477845,0.5003699419134985,0.5207365792888372,0.5450998226996194,0.5751126618338466,0.6198631894303982,1.0398958715424311,0.9783157894736842,0.5026793027592533,0.0,0.9858421052631579,50,1148,6361,772024,no_split,wide,individual,1,0.48650169372558594
0,0.0,0.41278875858240893,0.3442407264002117,0.36222885177661074,0.3764389377113713,0.38990243968397426,0.4036478071798792,0.41876332940141275,0.4357822010261105,0.45770584132328673,0.4932459569906245,0.7956164630092131,0.9851772287862514,0.41521756986464237,379.0,0.9810457164396101,50,1148,6427,772024,no_split,wide,individual,1,0.4910914897918701
1,1.0,0.417659232000221,0.34765252774328476,0.36654714239464337,0.38135701260697596,0.39399398972177524,0.40911085841973477,0.4235152342069858,0.4405254568815894,0.4627543529610576,0.5006452937983442,0.8901466130886679,0.9768923442392831,0.41521756986464237,379.0,0.9810457164396101,50,1148,6427,772024,no_split,wide,individual,1,0.4910914897918701
0,0.0,0.4627543743938418,0.3831995164840365,0.40467171949794745,0.4207843943018014,0.4365269177476558,0.45158455923551993,0.46868841334691175,0.48815926111158564,0.513924050235977,0.5554969952685962,0.9511545206301469,0.9737234042553191,0.46574623416117705,0.0,0.9690666666666666,50,1148,6583,772024,no_split,wide,individual,1,0.46343350410461426
1,1.0,0.46875409317860484,0.3852863108282444,0.40580014000455056,0.42384504352544355,0.4390733702459323,0.45500017274221216,0.4737728199749048,0.49521674677067334,0.5243649204924745,0.5697080207472598,0.9338305702163993,0.9643850267379679,0.46574623416117705,0.0,0.9690666666666666,50,1148,6583,772024,no_split,wide,individual,1,0.46343350410461426
0,0.0,0.44282832230486324,0.3582016061493166,0.380404512718772,0.3977962447187953,0.4146359331763445,0.4311474060983682,0.44871306464746424,0.47012989096151525,0.49878668969305884,0.5404659356250421,1.1384668077015943,0.9741798941798941,0.4514466642310243,0.0,0.9658288770053476,50,1148,6634,772024,no_split,wide,individual,1,0.4610614776611328
1,1.0,0.4602513486853184,0.3623766491554329,0.3877188431926807,0.4069276167949756,0.4254130245210006,0.444521613531629,0.46597448560761906,0.4921486000735656,0.5248893442485283,0.5787432488971558,1.2119381066624992,0.9572972972972973,0.4514466642310243,0.0,0.9658288770053476,50,1148,6634,772024,no_split,wide,individual,1,0.4610614776611328
0,0.0,0.4560823039786958,0.37797916639007995,0.39899091833804373,0.4158307837086999,0.43111681495557186,0.44594717144393137,0.46148248483794824,0.48100862406709066,0.5071946224719087,0.5472717514213765,1.007464942410453,0.9841666666666666,0.461286452526645,0.0,0.9735248041775457,50,1148,6844,772024,no_split,wide,individual,1,0.46976518630981445
1,1.0,0.46651784792563056,0.38809940314206715,0.41020344712642,0.4276493947473582,0.4434116146505494,0.4584758935222238,0.4745098634477876,0.49339238295451865,0.5177883567654794,0.5550570867217831,0.8543017015652405,0.96282722513089,0.461286452526645,0.0,0.9735248041775457,50,1148,6844,772024,no_split,wide,individual,1,0.46976518630981445
0,0.0,0.44283831999458445,0.35078872967398905,0.3743816695573339,0.3922928523352518,0.4091034748866491,0.4259851862295786,0.44617396987502417,0.46855549408832986,0.5002098944143272,0.5542752421921258,1.2276867009470944,0.9833684210526316,0.4594160342729145,0.0,0.9550261780104712,50,1148,7624,772024,no_split,wide,individual,1,0.47243666648864746
1,1.0,0.4758210640275118,0.36728219462507117,0.3968851680666035,0.4200797397656929,0.44184491536737946,0.464068167088494,0.48698621645673956,0.5128398705698441,0.5471616800334751,0.5989047896979774,1.0794451536730143,0.9269791666666667,0.4594160342729145,0.0,0.9550261780104712,50,1148,7624,772024,no_split,wide,individual,1,0.47243666648864746
0,0.0,0.4132543664069702,0.3341982831640682,0.35476029045451923,0.37084614596555154,0.3861637108738947,0.40107335133447825,0.41797647579585206,0.4380058862141639,0.4638204135894073,0.5075958610730169,0.9419830520313244,0.9686458333333333,0.4175229305954827,0.0,0.9635602094240838,50,1148,7756,772024,no_split,wide,individual,1,0.46953916549682617
1,1.0,0.4218364270386111,0.33657224824308585,0.35869314918678447,0.3748790631905331,0.39099066020921547,0.40859132215874805,0.4272492698368664,0.44883707036106973,0.477273989950474,0.5238207647109644,0.9742315541410794,0.958421052631579,0.4175229305954827,0.0,0.9635602094240838,50,1148,7756,772024,no_split,wide,individual,1,0.46953916549682617
0,0.0,0.42218187921695666,0.32760932121584324,0.353942623763574,0.37351514089311244,0.3908907080136626,0.4086060775722328,0.42741735879371345,0.45107568696831957,0.4828015845816566,0.5341564705186757,1.0229574495835643,0.9767021276595744,0.4315563784065792,0.0,0.9609651474530831,50,1148,7768,772024,no_split,wide,individual,1,0.4686863422393799
1,1.0,0.44108289650197935,0.34032529629816094,0.36802413154138963,0.3888032682699046,0.4099714305357422,0.4295444535690849,0.4508502356132666,0.4758699605362648,0.5060169670344383,0.556407333288649,0.9685589543538274,0.944972972972973,0.4315563784065792,0.0,0.9609651474530831,50,1148,7768,772024,no_split,wide,individual,1,0.4686863422393799
0,0.0,0.40868193253023577,0.3141021509740739,0.3367634946161632,0.3549067947500466,0.3724765399513071,0.39038449994913677,0.41115001017916347,0.4364600868100039,0.4719641150143189,0.5253659861970935,1.2141632279340773,0.9502617801047121,0.41214883653396195,0.0,0.9383769633507854,50,1148,7807,772024,no_split,wide,individual,1,0.4722015857696533
1,1.0,0.4156157405376881,0.3215015239704967,0.3454837615272835,0.3646521878845913,0.38304681693539777,0.4005915508572526,0.42035348700667,0.4439119234026926,0.47664496142070173,0.5280767219900975,1.0007140054355086,0.9264921465968586,0.41214883653396195,0.0,0.9383769633507854,50,1148,7807,772024,no_split,wide,individual,1,0.4722015857696533
0,0.0,0.39981551313327773,0.32485192587173256,0.3400540986536089,0.35406615475664444,0.3683226017134019,0.38380069697172525,0.40031226642087103,0.41977437979759064,0.44780144424463214,0.49597215432229763,0.959026364614908,0.9684375,0.4038710396142734,0.0,0.9630446194225721,50,1148,7813,772024,no_split,wide,individual,1,0.47623777389526367
1,1.0,0.4079909395314753,0.3289985255990258,0.34617694457650716,0.36127787801829536,0.37686532291070335,0.39306426069579303,0.4106129470827854,0.433452001035718,0.4609999835818185,0.5073424274067774,1.0597340605814094,0.9575661375661376,0.4038710396142734,0.0,0.9630446194225721,50,1148,7813,772024,no_split,wide,individual,1,0.47623777389526367
0,0.0,0.41646885628103325,0.35361486124863595,0.37086936144656746,0.3837916203932353,0.3952994420798112,0.40797462630830783,0.42204051345471977,0.4379202222443876,0.4585265155005455,0.48934298092267403,0.9690416279031024,0.9835602094240837,0.41925266913529025,0.0,0.9810471204188481,50,1148,7828,772024,no_split,wide,individual,1,0.4830501079559326
1,1.0,0.4220364819895472,0.3560007041446859,0.3731450854270677,0.38671309579177765,0.39993766514480206,0.4131459823690694,0.42699061893853885,0.4438292034250083,0.46623785381639193,0.5009292363967072,0.9091520636914405,0.9785340314136126,0.41925266913529025,0.0,0.9810471204188481,50,1148,7828,772024,no_split,wide,individual,1,0.4830501079559326
0,0.0,0.5572707334496894,0.4061521437641258,0.4353135360331004,0.46254000683303675,0.49022265413892546,0.520661710066199,0.5555693819488339,0.5983489701181303,0.658353078107525,0.7554051127567104,1.5360419603339708,0.9622222222222222,0.563458569634337,0.0,0.9579787234042553,50,1148,7840,772024,no_split,wide,individual,1,0.4834249019622803
1,1.0,0.569712585885131,0.41313464151847573,0.44548924799837847,0.4764519651068953,0.5071873814177648,0.5390137071515194,0.5747816320842689,0.6175570102666484,0.6751477323969088,0.7664139151810033,1.5855849525346293,0.9536898395721926,0.563458569634337,0.0,0.9579787234042553,50,1148,7840,772024,no_split,wide,individual,1,0.4834249019622803
0,0.0,0.45818054033331723,0.3733639294841396,0.39389085721223327,0.41153787567017897,0.4290694042563989,0.44559392208156645,0.4650681006671036,0.4867843513322774,0.515502321636858,0.5605078856387122,0.9489932587049645,0.996544502617801,0.4657019721352238,0.0,0.9924083769633508,50,1148,7924,772024,no_split,wide,individual,1,0.4948241710662842
1,1.0,0.4732234039371302,0.3843950585333366,0.4086043960400021,0.4272244252430076,0.44486847597553614,0.4623510029150959,0.4813207020196771,0.5044058032984922,0.5306766612044267,0.5756722613053982,1.042033155065993,0.9882722513089005,0.4657019721352238,0.0,0.9924083769633508,50,1148,7924,772024,no_split,wide,individual,1,0.4948241710662842
0,0.0,0.449425799246832,0.3723584252943188,0.39403301764566834,0.41093216572925123,0.42584066734328335,0.4408644172523469,0.4567436343491812,0.47506544790047533,0.49978321788883157,0.5366960483093026,0.9144488193596503,0.9891005291005291,0.4577165208395049,0.0,0.9862068965517241,50,1148,7939,772024,no_split,wide,individual,1,0.49295544624328613
1,1.0,0.46605134201511744,0.3760846799806835,0.4000835717999206,0.4196851135672284,0.4381041643702825,0.4547475150342725,0.4738749549188594,0.49692627492160213,0.5254511063420497,0.5693594925778226,0.9891766394546755,0.9832978723404255,0.4577165208395049,0.0,0.9862068965517241,50,1148,7939,772024,no_split,wide,individual,1,0.49295544624328613
0,0.0,0.4544946099068297,0.3491565520091857,0.37577270582067895,0.39607332325230643,0.4154796579312397,0.43442039414815586,0.45708648374723376,0.4827581460000816,0.5204967419412634,0.5866343185643957,1.3297127129022144,0.9589887640449438,0.4633892343830947,0.0,0.9362534435261708,50,1148,8026,772024,no_split,wide,individual,1,0.4875774383544922
1,1.0,0.4719473055007985,0.360380378579645,0.38945640510498836,0.41119558456765576,0.43326893290321683,0.4548660866240154,0.47751025264045754,0.5065974046785524,0.5446941712810827,0.6062601777525206,1.4182428130181508,0.9143783783783784,0.4633892343830947,0.0,0.9362534435261708,50,1148,8026,772024,no_split,wide,individual,1,0.4875774383544922
0,0.0,0.4742813964477951,0.3711747282254072,0.3955481277428657,0.4142212628386066,0.43446546608039754,0.4557255786377283,0.4781672733808994,0.5063778402267162,0.5434515610383989,0.6032969485933573,1.1317665044797904,0.9811578947368421,0.4763676485315161,0.0,0.9745789473684211,50,1148,808,772024,no_split,wide,individual,1,0.4929845333099365
1,1.0,0.47845390061523724,0.37772197555762543,0.4025291593096703,0.4215838441625284,0.4409621214074853,0.4613331770592435,0.4835049662987868,0.5089066902246412,0.545106738303073,0.6012508306429267,1.2082974049459634,0.968,0.4763676485315161,0.0,0.9745789473684211,50,1148,808,772024,no_split,wide,individual,1,0.4929845333099365
0,0.0,0.44654838506872657,0.34483542983145316,0.3711157130202815,0.39235595241229465,0.4114925871950571,0.43060547378347847,0.45098190384003006,0.47753088622023054,0.5113124438292909,0.5661521396679836,1.2981534249211546,0.9356020942408377,0.45155438307477297,0.0,0.9252741514360313,50,1148,8311,772024,no_split,wide,individual,1,0.4966723918914795
1,1.0,0.45653430817453794,0.3451600954520166,0.37142116491494126,0.3946079036761819,0.4156103374690339,0.43610929285509836,0.45902219739878675,0.4888872446323657,0.5306669833258204,0.5974381498082469,1.194405612131667,0.915,0.45155438307477297,0.0,0.9252741514360313,50,1148,8311,772024,no_split,wide,individual,1,0.4966723918914795
0,0.0,0.4612761493735819,0.37711664127250843,0.3987493132232335,0.4161333710601727,0.43136236944794576,0.44731323841341153,0.465249220474893,0.48693577859202547,0.5152934140851395,0.5619997213506399,1.0014524299573277,0.9655208333333334,0.46535171613756904,0.0,0.9561904761904761,50,1148,833,772024,no_split,wide,individual,1,0.4935722351074219
1,1.0,0.4695587527971688,0.37975249170005215,0.4022498520832401,0.4200549832635483,0.4367162067877388,0.45400719223027447,0.4743613047687785,0.4981794926230978,0.5290157447478022,0.5785999099747349,1.0391331161213664,0.9465591397849462,0.46535171613756904,0.0,0.9561904761904761,50,1148,833,772024,no_split,wide,individual,1,0.4935722351074219
0,0.0,0.5550731972255908,0.38703953054083995,0.4209394719318626,0.44940573718669957,0.47869071883612957,0.5113897431741135,0.5497137769169173,0.5967806362063695,0.6658461057043555,0.7869819493701878,1.5692523801977238,0.9415217391304348,0.5671577001757709,0.0,0.9258378378378378,50,1148,837,772024,no_split,wide,individual,1,0.49410152435302734
1,1.0,0.5791122622340136,0.39984217208702844,0.4388233125245992,0.4740110472457993,0.5063889551301733,0.5421738981021895,0.5858947663658937,0.6323801517390252,0.6994765720356986,0.8071737372341381,1.5431871380218676,0.9103225806451613,0.5671577001757709,0.0,0.9258378378378378,50,1148,837,772024,no_split,wide,individual,1,0.49410152435302734
0,0.0,0.3893463475710644,0.31974208055520836,0.3386678708520652,0.3538745690508728,0.3674226037220635,0.3807112917004714,0.39524882473645845,0.4120849278711168,0.4337337186935422,0.46980551781340696,0.7992818422045331,0.9821989528795811,0.3958131660156865,0.0,0.9738421052631578,50,1148,8446,772024,no_split,wide,individual,1,0.4932210445404053
1,1.0,0.4023484164015214,0.3264351798741298,0.3458711410303755,0.362600082568407,0.3779913934091072,0.39377970553305897,0.41002558296973846,0.4282241701900383,0.4513680567463451,0.4915432625406574,0.831810980617156,0.9653968253968254,0.3958131660156865,0.0,0.9738421052631578,50,1148,8446,772024,no_split,wide,individual,1,0.4932210445404053
0,0.0,0.4207773992255805,0.3444495031290557,0.36466432359246387,0.38047437389624716,0.39504746866164503,0.4100186979720366,0.4262617346886578,0.44615361771777856,0.46959570550755386,0.5093581527968405,0.9512917251723418,0.9649735449735449,0.42991350264763534,0.0,0.9587234042553191,50,1148,845,772024,no_split,wide,individual,1,0.4959390163421631
1,1.0,0.43914731840575494,0.34859143407485116,0.3694595842647298,0.38692977572971665,0.40361405119451105,0.42089208532490363,0.4413183276608995,0.46653593426435763,0.49852884159292743,0.554284431110005,0.9813868011507221,0.9524064171122995,0.42991350264763534,0.0,0.9587234042553191,50,1148,845,772024,no_split,wide,individual,1,0.4959390163421631
0,0.0,0.49136673988178153,0.39414258939054775,0.4192287846807402,0.4389169359443061,0.45689263201403524,0.47578914147311835,0.49615074220670446,0.5213766998286369,0.5538658545403945,0.6076850183351539,1.1313348519627544,0.9609424083769633,0.4948738033987985,0.0,0.9548947368421052,50,1148,8521,772024,no_split,wide,individual,1,0.49549198150634766
1,1.0,0.49841797869906435,0.3956647907714586,0.42126202069252455,0.4422614330006158,0.4616197723682825,0.48122448094372616,0.5043783264558043,0.5296741447672045,0.5660354467263564,0.6231837788320602,1.172045671168673,0.9487830687830687,0.4948738033987985,0.0,0.9548947368421052,50,1148,8521,772024,no_split,wide,individual,1,0.49549198150634766
0,0.0,0.5641816335611668,0.42594509378871714,0.45752636539435454,0.48564526229702,0.5125613063334665,0.5405392815396068,0.5704723217948603,0.6085488718895335,0.6582956266608543,0.7339246222803872,1.5377017995842701,0.9782608695652174,0.5634898935026371,0.0,0.9779032258064516,50,1148,8704,772024,no_split,wide,individual,1,0.49704718589782715
1,1.0,0.5628128713176933,0.4287449512809053,0.4602262976891323,0.4869228957281961,0.5114431483555679,0.539223971418382,0.5703311331307452,0.6063073275611444,0.6493380706007301,0.7261692330347128,1.4655647965063923,0.9775531914893617,0.5634898935026371,0.0,0.9779032258064516,50,1148,8704,772024,no_split,wide,individual,1,0.49704718589782715
0,0.0,0.4471174657148735,0.3639595456539659,0.3860760224011068,0.40393770374556126,0.4196359219108428,0.43528526897760944,0.45400968765431043,0.4755597138113797,0.5009243147351784,0.5416135816230451,1.111602203459681,0.991195652173913,0.452374714555987,0.0,0.989041095890411,50,1148,8755,772024,no_split,wide,individual,1,0.4973752498626709
1,1.0,0.45771910011822386,0.3683294027777866,0.39042109061581043,0.40965892113983676,0.4266943095264649,0.4449975260969299,0.4649227189632154,0.4880549847118679,0.5176132294142377,0.5631509210934934,0.9506600499647354,0.9868508287292818,0.452374714555987,0.0,0.989041095890411,50,1148,8755,772024,no_split,wide,individual,1,0.4973752498626709
0,0.0,0.4528007779492864,0.36084284111505677,0.38478993123011823,0.4042117931843916,0.4217318342661044,0.4393274144528856,0.459371169021962,0.48140076912005475,0.5117365046144029,0.5605670991839141,1.2356354805970404,0.9666666666666667,0.45581389435018604,0.0,0.96296875,50,1148,8785,772024,no_split,wide,individual,1,0.49484944343566895
1,1.0,0.4588270107510856,0.3627121304524499,0.3885613129658085,0.40735453191547105,0.4252083073564807,0.4439814782000793,0.46442978158101733,0.4889442245823505,0.5211126444042367,0.5738968365708326,1.0235724658597083,0.9592708333333333,0.45581389435018604,0.0,0.96296875,50,1148,8785,772024,no_split,wide,individual,1,0.49484944343566895
0,0.0,0.4123863702279154,0.3259807571107013,0.3470022857879937,0.365035976872568,0.3808697817343268,0.39747024900739203,0.4160207169511911,0.4386434567318796,0.4691197474316168,0.5139941698699471,1.0380410673214295,0.9767195767195768,0.42228353831929816,0.0,0.9685411140583554,50,1148,8788,772024,no_split,wide,individual,1,0.4956393241882324
1,1.0,0.4322333509218052,0.32881483393396543,0.3545524893766977,0.37517677936261024,0.3947234860058724,0.4149023343430719,0.4371036336103496,0.465103221518454,0.5014289924123918,0.5567937875202763,1.0454329887153504,0.9603191489361702,0.42228353831929816,0.0,0.9685411140583554,50,1148,8788,772024,no_split,wide,individual,1,0.4956393241882324
0,0.0,0.4658540265824658,0.3608411091430237,0.38231254515887436,0.40240703518158766,0.421820817113212,0.44143968728262495,0.46419851193960415,0.49313276269667594,0.5317650544398267,0.597383237445228,1.395603920146741,0.9630687830687831,0.48106130897619415,0.0,0.9532978723404255,50,1148,916,772024,no_split,wide,individual,1,0.49717187881469727
1,1.0,0.4964312361014064,0.3622459227450437,0.3890012144080363,0.4138301484791999,0.43943370858490005,0.46812241341678706,0.5003639928132999,0.5412617445283506,0.5908532719353833,0.6660145449470998,1.4246911157249682,0.9434224598930482,0.48106130897619415,0.0,0.9532978723404255,50,1148,916,772024,no_split,wide,individual,1,0.49717187881469727
0,0.0,0.41244356062946447,0.33237902396884084,0.3515454181997016,0.3674634335130096,0.382121378977208,0.3977102027653303,0.41461363307802795,0.43708519651271766,0.46455578790572233,0.5090556549652965,1.0608725324227124,0.9675789473684211,0.41841079656191,0.0,0.954488188976378,50,1148,985,772024,no_split,wide,individual,1,0.49495458602905273
1,1.0,0.4243467904214107,0.3360528549608632,0.35867751791986935,0.3765976803706626,0.3920181893707123,0.4094528304998097,0.42982878388104445,0.4521398856955204,0.4826457318834555,0.5300095910479512,0.9360352703881286,0.9414659685863874,0.41841079656191,0.0,0.954488188976378,50,1148,985,772024,no_split,wide,individual,1,0.49495458602905273
0,0.0,0.44304116659917997,0.35556938557123474,0.37538534431899095,0.39262269978990205,0.4086548010300587,0.4254316669761774,0.44440182837746756,0.46766720605273654,0.49724869185700243,0.5501478824012883,1.3870154537842923,0.9844878048780488,0.45902826283056314,0.0,0.9701507537688442,50,1148,275,772024,no_split,narrow,individual,1,0.49387264251708984
1,1.0,0.47600937540793914,0.3672242571163038,0.3934080252658895,0.41541201187404536,0.437390620017473,0.4599450555096607,0.4845643614675946,0.5133173939824361,0.5501539847442025,0.6051004182149251,1.1870983781855526,0.9549222797927461,0.45902826283056314,0.0,0.9701507537688442,50,1148,275,772024,no_split,narrow,individual,1,0.49387264251708984
0,0.0,0.47305723576792214,0.3785055628604521,0.4009697023753062,0.41972194078906927,0.43730037515610287,0.4564183987401875,0.47742395008238686,0.5011285080222797,0.5349900416239666,0.5883683431855963,1.3679092878871086,0.9837142857142858,0.476358139920089,0.0,0.9768181818181818,50,1148,808,772024,no_split,narrow,individual,1,0.49307727813720703
1,1.0,0.48008496718866445,0.3869787627831326,0.410368777962641,0.4303368446939211,0.4475347243264209,0.4662806608810316,0.4865178072908866,0.5093922868934779,0.5408452037973533,0.5901128696250783,1.1646879843757048,0.9690322580645161,0.476358139920089,0.0,0.9768181818181818,50,1148,808,772024,no_split,narrow,individual,1,0.49307727813720703
0,0.0,0.46388444671199147,0.3783932717481628,0.40187587445973944,0.4194492463286576,0.43639148847893633,0.452740979445203,0.46995586964579494,0.49011188133189715,0.5174348298941046,0.5605418042339517,1.0668748071073422,0.9679,0.47431956798168595,0.0,0.9460266666666667,50,1148,833,772024,no_split,narrow,individual,1,0.4899904727935791
1,1.0,0.4862454208613367,0.3873310032757752,0.41347888089932866,0.43496718043453514,0.45342855578808516,0.4739177605804282,0.49567287491232487,0.5199880156099398,0.551780360008812,0.5998886962794955,1.0533342252100932,0.9210285714285714,0.47431956798168595,0.0,0.9460266666666667,50,1148,833,772024,no_split,narrow,individual,1,0.4899904727935791
0,0.0,0.5780815826962759,0.38821782209770084,0.4282186708612545,0.4622011404883291,0.4977425585927986,0.5342860091502084,0.5755148015939433,0.6295573707449922,0.7023946761848173,0.8227082631658402,1.5632435147187906,0.9304712041884817,0.5884104675299439,0.0,0.9111170212765958,50,1148,837,772024,no_split,narrow,individual,1,0.48775649070739746
1,1.0,0.5990743432230821,0.3950129904776148,0.4394729403695571,0.47897747014542114,0.5191768058722371,0.5588493733163512,0.6049193048400582,0.6605439654508395,0.7352996744414995,0.8591213125140599,1.633467514993651,0.8911351351351351,0.5884104675299439,0.0,0.9111170212765958,50,1148,837,772024,no_split,narrow,individual,1,0.48775649070739746
0,0.0,0.4266182517195084,0.3507563919159726,0.37066038338330576,0.38733598159567073,0.40139754901084446,0.41576447046273735,0.4308379519400817,0.45020250228074526,0.4741046983410496,0.5145456305403864,1.0674028556154798,0.9726041666666667,0.4366004903320021,0.0,0.9474866310160428,50,1148,845,772024,no_split,narrow,individual,1,0.48949670791625977
1,1.0,0.4471312035935339,0.358217164470166,0.3829001931803526,0.4016156735943884,0.41944363128286793,0.43697038822422557,0.45503756224982805,0.4784574423109719,0.5051082875329309,0.5484901504636065,1.058201267145222,0.920989010989011,0.4366004903320021,0.0,0.9474866310160428,50,1148,845,772024,no_split,narrow,individual,1,0.48949670791625977
0,0.0,0.4689301130917476,0.3627114132861859,0.3835265323662435,0.401511626870463,0.42015783632933473,0.44028992406406564,0.46423683429509904,0.49296651668681546,0.5366460728008758,0.612518202304718,1.4079066411285062,0.9747486033519553,0.48787439543901934,0.0,0.9513661202185792,50,1148,916,772024,no_split,narrow,individual,1,0.4863393306732178
1,1.0,0.5060082272045896,0.3748715300537538,0.40507254897574513,0.4311581267713237,0.45731063860620497,0.48495050320365685,0.5150182507140579,0.5499586153336313,0.5960001579676706,0.6624248256802908,1.3103239194213367,0.9289839572192513,0.48787439543901934,0.0,0.9513661202185792,50,1148,916,772024,no_split,narrow,individual,1,0.4863393306732178
0,0.0,0.41158207595394997,0.33821461961512583,0.35765257602582523,0.3728967681853033,0.3860065263035372,0.40003591577124303,0.41473570893925304,0.4319456202303734,0.45510770337639267,0.49582368657619935,0.8854628163673743,0.9667796610169491,0.4272311804918935,0.0,0.933550135501355,50,1148,985,772024,no_split,narrow,individual,1,0.4879326820373535
1,1.0,0.44165769873781024,0.34718317610256555,0.3703728398717326,0.38960061928549206,0.4077034699890977,0.4284328142571421,0.4493530280935488,0.47534398977302045,0.5061346055545181,0.5520819308521022,0.9688790246682432,0.9029166666666667,0.4272311804918935,0.0,0.933550135501355,50,1148,985,772024,no_split,narrow,individual,1,0.4879326820373535
0,0.0,0.4104295537099988,0.33440440717292663,0.35422405975552107,0.36917358837543884,0.3832115796462454,0.3973505602049556,0.41246999264118317,0.4306502923417558,0.45578139359439396,0.5017959054596178,0.9853920997612626,0.98,0.43231990491457517,0.0,0.9243684210526316,50,1148,1108,772024,no_split,narrow,individual,1,0.4893381595611572
1,1.0,0.45120569811068045,0.3569679152533723,0.3809944825398799,0.4018495363078231,0.4207133722612398,0.4404053914491145,0.4608428443847407,0.4836406367092909,0.513075431450824,0.5585099154425694,1.0306979624429558,0.8763725490196078,0.43231990491457517,0.0,0.9243684210526316,50,1148,1108,772024,no_split,narrow,individual,1,0.4893381595611572
0,0.0,0.44257507816681724,0.35170344137558773,0.3756317846526674,0.3941854915358128,0.41142722156127953,0.4282252604552609,0.445937378705544,0.4669914053286116,0.49767621537512907,0.5515773367319182,1.1958250681461817,0.9610050251256281,0.455285099228147,0.0,0.9137100737100737,50,1148,1507,772024,no_split,narrow,individual,1,0.4818074703216553
1,1.0,0.46744516745509224,0.36705874216245404,0.3939357564210834,0.4164111254777624,0.4365215371949412,0.45607076902638505,0.4776605566197476,0.5011266465492892,0.5327850855756214,0.5818207878819143,1.175803172744756,0.8684615384615385,0.455285099228147,0.0,0.9137100737100737,50,1148,1507,772024,no_split,narrow,individual,1,0.4818074703216553
0,0.0,0.45425636443861245,0.36325107755794983,0.3888585614941041,0.40678846398257296,0.4235943224451884,0.4415429123354962,0.45937204954461575,0.4819511810794209,0.5113964978187941,0.5600595280086192,1.1071990840839507,0.9719354838709677,0.4643195078369909,0.0,0.9626701570680628,50,1148,1538,772024,no_split,narrow,individual,1,0.48607611656188965
1,1.0,0.4738692255517785,0.3701639666833055,0.39596074339699466,0.4177496278163729,0.43852117236947363,0.4594650418444691,0.48217624111522167,0.5086575042460807,0.5424304762781436,0.5970378250753094,1.0464445331979761,0.9538775510204082,0.4643195078369909,0.0,0.9626701570680628,50,1148,1538,772024,no_split,narrow,individual,1,0.48607611656188965
0,0.0,0.4704182360182768,0.3739542579302915,0.39555702829283007,0.4131231207545221,0.43077762949327947,0.44940014739576983,0.46913942281383725,0.4946126326837622,0.5312017244321819,0.5947874717323804,1.255463259421347,0.9924468085106383,0.4926710419996686,0.0,0.9671584699453551,50,1148,1582,772024,no_split,narrow,individual,1,0.4834425449371338
1,1.0,0.5161740056204644,0.40428811280670346,0.4367531294421627,0.4608265138056552,0.4829185312602616,0.5054056535983491,0.5285691832831264,0.5548315687225903,0.5858158886706057,0.6348814220286669,1.252723115578507,0.9404494382022472,0.4926710419996686,0.0,0.9671584699453551,50,1148,1582,772024,no_split,narrow,individual,1,0.4834425449371338
0,0.0,0.44729542609488054,0.3506464831801754,0.372835555752505,0.38919912492294595,0.4052568117232669,0.42231088269952555,0.4415376495739976,0.4674353612746582,0.5077771796526108,0.5780660528069403,1.212517028317341,0.9850251256281407,0.4706752122163316,0.0,0.9338345864661655,50,1148,1583,772024,no_split,narrow,individual,1,0.4857335090637207
1,1.0,0.49393809940717537,0.3791158923582757,0.40929632012437056,0.4361649608602352,0.45889866484824304,0.4806473745147336,0.5043497395079011,0.5315317166493777,0.5664094939639177,0.6228510319179026,1.2528479437245055,0.8829,0.4706752122163316,0.0,0.9338345864661655,50,1148,1583,772024,no_split,narrow,individual,1,0.4857335090637207
0,0.0,0.5589289647292758,0.4092035137194966,0.4365677350262654,0.4621897290205115,0.48768236618454686,0.515566095733623,0.5507195160928194,0.5983378287342027,0.6620003923933868,0.7725829840956466,1.5385296143908032,0.9569398907103825,0.5694185349689316,0.0,0.9370879120879121,50,1148,1597,772024,no_split,narrow,individual,1,0.48839759826660156
1,1.0,0.5800240120620642,0.4222368498980901,0.460471438218652,0.49150944871885355,0.5214776149370016,0.5513578863990904,0.585185176061095,0.6263538992142781,0.6798588111668622,0.7708574459865408,1.5586494299392037,0.9170165745856353,0.5694185349689316,0.0,0.9370879120879121,50,1148,1597,772024,no_split,narrow,individual,1,0.48839759826660156
0,0.0,0.41537189174099304,0.33126234959969403,0.35344038136586436,0.37017470365144806,0.38597364166505227,0.400813636632971,0.41845972033246703,0.43725701453380544,0.46557922778997096,0.514559752233562,1.1389798588440867,0.9877595628415301,0.4391610681420728,0.0,0.9667733333333334,50,1148,1601,772024,no_split,narrow,individual,1,0.48676156997680664
1,1.0,0.46183512689935186,0.3475006886564922,0.3771840749179839,0.4010387023910512,0.42518012469934724,0.44852924416701734,0.47331072173386585,0.5029258843671031,0.5392466315764467,0.5925764217914142,1.0629779951876825,0.9467708333333333,0.4391610681420728,0.0,0.9667733333333334,50,1148,1601,772024,no_split,narrow,individual,1,0.48676156997680664
0,0.0,0.4963962402836892,0.3701000767771107,0.39880081858309635,0.421684920076078,0.44384871534690257,0.46857893396805206,0.49652240330877745,0.5302868311059912,0.5776445042875266,0.6575701327971462,1.3304426670819856,0.9758415841584158,0.5099178173324678,0.0,0.9555913978494623,50,1148,1614,772024,no_split,narrow,individual,1,0.48679518699645996
1,1.0,0.5259846324139575,0.39355235824565515,0.42717927224827035,0.4538035864038802,0.48065019657386,0.5060870807387825,0.5351758765154989,0.5691954285292177,0.6130573971637213,0.6813268828699831,1.3880453210381363,0.9315294117647058,0.5099178173324678,0.0,0.9555913978494623,50,1148,1614,772024,no_split,narrow,individual,1,0.48679518699645996
0,0.0,0.4759251677116324,0.3803447617597167,0.4074937787158984,0.4287257740842798,0.44689296153531294,0.4646470494354437,0.48423170139148414,0.5058857550555764,0.5356282991424537,0.5843300917655844,1.1770407024323573,0.988950276243094,0.492516743763793,0.0,0.9728421052631578,50,1148,1638,772024,no_split,narrow,individual,1,0.4913761615753174
1,1.0,0.5076075742433964,0.39712350980145095,0.4298932427501618,0.4546846387413744,0.4770683506902543,0.49819951424951425,0.5218193491648663,0.5480452753414832,0.5808195069039348,0.6288723279682994,1.0099951576255373,0.9581909547738694,0.492516743763793,0.0,0.9728421052631578,50,1148,1638,772024,no_split,narrow,individual,1,0.4913761615753174
0,0.0,0.4044122646302013,0.327567441781128,0.3468786326775673,0.3629868799929432,0.3770086629759425,0.391168388347773,0.4066897353206412,0.42513341100522195,0.45068818597079846,0.4944986118748874,1.0136712224117916,0.9603061224489796,0.41704563924523136,0.0,0.9278706199460917,50,1148,1657,772024,no_split,narrow,individual,1,0.48546838760375977
1,1.0,0.4311950188140649,0.3389464149819741,0.3619102521238581,0.3816890365538505,0.3989858724869321,0.4185486148555517,0.43878374656404123,0.4633142980652023,0.49205813330429293,0.5394881927162912,1.1013756725774955,0.8915428571428572,0.41704563924523136,0.0,0.9278706199460917,50,1148,1657,772024,no_split,narrow,individual,1,0.48546838760375977
0,0.0,0.4643967533153005,0.3763627258370844,0.3974571196833659,0.41575232225655934,0.43164007954572653,0.4475174397525158,0.4662088279385316,0.4894813087226939,0.5204197831592152,0.5732228090768131,1.2461824753573996,0.9887179487179487,0.4797506101070351,0.0,0.9718781725888325,50,1148,1663,772024,no_split,narrow,individual,1,0.4846484661102295
1,1.0,0.4947958466617501,0.3968617631755279,0.42395889000769893,0.4446252061218663,0.4652938131912612,0.4844317434621337,0.5053308061604657,0.5293386805518846,0.5591871677835579,0.6040365989057394,1.0470909651748803,0.9553768844221106,0.4797506101070351,0.0,0.9718781725888325,50,1148,1663,772024,no_split,narrow,individual,1,0.4846484661102295
0,0.0,0.5023181836713271,0.3963220702447533,0.42219547259436385,0.44299632232971387,0.4629616069933956,0.48266243129970793,0.5040603385874581,0.533483843185502,0.568012456462882,0.6292996615962668,1.2127745439910664,0.9627624309392265,0.5121283328544449,0.0,0.950110497237569,50,1148,1761,772024,no_split,narrow,individual,1,0.48586583137512207
1,1.0,0.521938482037563,0.40320008499789284,0.43417137467450445,0.45818204046596483,0.480619350333701,0.503584934165952,0.5305716099309531,0.5604620991482051,0.5999842508801468,0.6627211346754204,1.234896152368834,0.9374585635359116,0.5121283328544449,0.0,0.950110497237569,50,1148,1761,772024,no_split,narrow,individual,1,0.48586583137512207
0,0.0,0.45506845291765924,0.3529310306746162,0.37930472572484414,0.39968970771631146,0.4185765144437429,0.43806248860579644,0.4591645161853279,0.48358593313266396,0.517081994728919,0.5757560207899867,1.2780316503350195,0.9666304347826087,0.4687646898401626,0.0,0.9449189189189189,50,1148,1768,772024,no_split,narrow,individual,1,0.4927973747253418
1,1.0,0.4823136553979079,0.3609763070197171,0.3906633868122417,0.4165390823933372,0.44002300772703984,0.4633698083769313,0.4892058281177705,0.5216424759666053,0.5631130791740433,0.6274019759396119,1.154241142842356,0.9234408602150538,0.4687646898401626,0.0,0.9449189189189189,50,1148,1768,772024,no_split,narrow,individual,1,0.4927973747253418
0,0.0,0.3802659308541787,0.29927543286895036,0.32145132072565596,0.33796905294400387,0.35358700563254825,0.3677159857058053,0.3834220132506725,0.4031123258461679,0.42883169206188343,0.4752412436207668,0.9802723855668872,0.9699441340782123,0.3954195169197234,0.0,0.9287700534759358,50,1148,1813,772024,no_split,narrow,individual,1,0.4974343776702881
1,1.0,0.40932973182091564,0.3128339842435874,0.3389797766510691,0.3591316906072933,0.37826101941614043,0.39736591327563997,0.41754681353033496,0.44165998698197895,0.4723326907359718,0.5216063638898789,1.0390710635590172,0.890974358974359,0.3954195169197234,0.0,0.9287700534759358,50,1148,1813,772024,no_split,narrow,individual,1,0.4974343776702881
0,0.0,0.40325360070854077,0.31450981233910796,0.33362968538282634,0.3497532532536406,0.36549031717864366,0.3824488137528058,0.4021806748002119,0.4258819284092852,0.4594563232555327,0.5182175393294709,1.0961110077438263,0.9808780487804878,0.42025155251903656,0.0,0.9567326732673267,50,1148,1821,772024,no_split,narrow,individual,1,0.4981353282928467
1,1.0,0.4377620053891454,0.330740206453033,0.35667033523236524,0.37892639770399034,0.4011327791445191,0.4231163976226482,0.44675227172231896,0.47291293995249223,0.5078693012430711,0.563801774934541,1.1812197277473415,0.9318592964824121,0.42025155251903656,0.0,0.9567326732673267,50,1148,1821,772024,no_split,narrow,individual,1,0.4981353282928467
0,0.0,0.39299708843241693,0.31611845778247805,0.3342166658575442,0.34863073898230246,0.36268875772061915,0.3776439809257464,0.3944881718126171,0.41500357777062397,0.44057526590170365,0.4913839731208703,0.8599730659284793,0.9825414364640884,0.40367869450374044,0.0,0.9701595744680851,50,1148,3286,772024,no_split,narrow,individual,1,0.499284029006958
1,1.0,0.4135934160366099,0.32537725595724587,0.3482447850229928,0.3667976896069413,0.38378986155790273,0.4015426332267934,0.42110826223238695,0.4427434730254881,0.4717936189136047,0.5171204312040983,0.9255437043387603,0.9586666666666667,0.40367869450374044,0.0,0.9701595744680851,50,1148,3286,772024,no_split,narrow,individual,1,0.499284029006958
0,0.0,0.476999801336968,0.37454390340700355,0.3999015408418197,0.42049457426770487,0.4389362920053844,0.457989210721731,0.4793245092055559,0.5046149529071254,0.5404303333462946,0.6045257165137449,1.2708681573276444,0.9802272727272727,0.4972838912966152,0.0,0.9590659340659341,50,1148,3292,772024,no_split,narrow,individual,1,0.4931304454803467
1,1.0,0.516273252109902,0.39519779714442826,0.42698341122189454,0.45430169082317384,0.4793907845914915,0.5020022894454537,0.5281263868716234,0.5583981854189098,0.5962211709584319,0.6514901303154429,1.3052405230036024,0.9392553191489361,0.4972838912966152,0.0,0.9590659340659341,50,1148,3292,772024,no_split,narrow,individual,1,0.4931304454803467
0,0.0,0.4029926622105359,0.32446515404538057,0.3459579893026702,0.36336649605100596,0.37824995461044014,0.3923206672185108,0.4079757888322176,0.42539880912688904,0.4498714310389004,0.4924582165364185,0.8466216671846828,0.9883422459893048,0.42216831591284465,0.0,0.9323636363636364,50,1148,3487,772024,no_split,narrow,individual,1,0.49434900283813477
1,1.0,0.44027865552058065,0.3479173098805653,0.3745913269929708,0.39540747574453344,0.4150185303198666,0.43363386588569175,0.45243056961740985,0.47442754672829907,0.5006643831321037,0.5377753516305368,0.9394217938834503,0.8794949494949494,0.42216831591284465,0.0,0.9323636363636364,50,1148,3487,772024,no_split,narrow,individual,1,0.49434900283813477
0,0.0,0.4136664334427445,0.3536895418926612,0.3714663456201254,0.384726736399055,0.39648638579399087,0.4079803447246583,0.4202758679514691,0.4344898974799439,0.4517616144297017,0.4791587667659117,0.7156591763997302,0.9782089552238806,0.4248864110421203,0.0,0.9423857868020304,50,1148,3580,772024,no_split,narrow,individual,1,0.4925804138183594
1,1.0,0.43657146543318015,0.36566452587822657,0.3857664661301233,0.4020895210520087,0.41582657055958006,0.42965340702890736,0.4450656999835186,0.4609030182556106,0.4835866025449887,0.5152044466900201,0.9480022018482575,0.9050777202072539,0.4248864110421203,0.0,0.9423857868020304,50,1148,3580,772024,no_split,narrow,individual,1,0.4925804138183594
0,0.0,0.49066653681308886,0.37808338527390895,0.40203138320268617,0.42167255615727506,0.4419550438787526,0.46276771683334494,0.48797344891810446,0.5193544562964472,0.5644310083478852,0.6400012563061758,1.4586425452357268,0.9361290322580645,0.5020724507307214,0.0,0.9138121546961326,50,1148,3625,772024,no_split,narrow,individual,1,0.48987722396850586
1,1.0,0.5141264279391285,0.3853891218231757,0.4148806496175932,0.4392835284957705,0.46398854119855815,0.48984413618325134,0.5180670774342204,0.5528765871492692,0.5996325846909952,0.6713743265189518,1.430855639989204,0.8902272727272728,0.5020724507307214,0.0,0.9138121546961326,50,1148,3625,772024,no_split,narrow,individual,1,0.48987722396850586
0,0.0,0.5298913796086993,0.42551940906349084,0.45411817448453007,0.47634321919878514,0.4955217951767437,0.5160387797992548,0.5367937931548893,0.5630320583745553,0.5959714240220799,0.6485266323334623,1.1832597699547427,0.9889887640449438,0.5539474732617901,0.0,0.9787533875338753,50,1148,3754,772024,no_split,narrow,individual,1,0.49334263801574707
1,1.0,0.5763662411688589,0.4415649091433312,0.47664162881638444,0.507340897219439,0.5353410834320924,0.5629036350529013,0.592276706192585,0.6262311920655348,0.6683265525894752,0.7276116544601724,1.2591518107331874,0.9692146596858638,0.5539474732617901,0.0,0.9787533875338753,50,1148,3754,772024,no_split,narrow,individual,1,0.49334263801574707
0,0.0,0.41490272542545864,0.33770934859418483,0.35950365074970553,0.3756521075342583,0.3902857002706767,0.40502750016385036,0.4208795827193354,0.4399892377053706,0.46263680893223186,0.5020334035605646,0.9305144597238022,0.9908510638297873,0.4278931547429336,0.0,0.9757512953367876,50,1148,3910,772024,no_split,narrow,individual,1,0.4945399761199951
1,1.0,0.4402275017716471,0.3541530115280088,0.3784900548742216,0.3984598485617544,0.41541593344811684,0.4326359226603166,0.45044906066128326,0.47188935875231364,0.4973730482791107,0.5362252925515354,0.842073669048383,0.9614141414141414,0.4278931547429336,0.0,0.9757512953367876,50,1148,3910,772024,no_split,narrow,individual,1,0.4945399761199951
0,0.0,0.40384509046434464,0.3389418766786475,0.35336060006214526,0.3657185772072046,0.3767527954296253,0.38860853066474743,0.4026056811904131,0.42105161056014156,0.44671956087894393,0.48819614245663767,0.8877476618188301,0.9893922651933702,0.41560081471452404,0.0,0.9725263157894737,50,1148,4222,772024,no_split,narrow,individual,1,0.4904015064239502
1,1.0,0.4262932071229787,0.3518732399552454,0.3697244836263179,0.38519334698609137,0.4004832136350348,0.415299694740632,0.4315099532362258,0.451453058592465,0.4770149348341695,0.5145447041926873,0.8877573942622868,0.9571859296482412,0.41560081471452404,0.0,0.9725263157894737,50,1148,4222,772024,no_split,narrow,individual,1,0.4904015064239502
0,0.0,0.46963561285988115,0.35484510826341703,0.38345531234446617,0.404656168483183,0.42608292219403265,0.44566103418253383,0.4690442702354479,0.49749054401710435,0.5377837735506537,0.6096819827890262,1.4956221349044012,0.9483838383838383,0.48506002428182127,0.0,0.9013098236775818,50,1148,4264,772024,no_split,narrow,individual,1,0.48667049407958984
1,1.0,0.5004069260986259,0.3685653946799854,0.40136687024510154,0.4287566263132926,0.45292616869196795,0.4793409544467155,0.5092581837199821,0.5433351857047038,0.587147806036906,0.6564200653384781,1.32537595690094,0.8544723618090452,0.48506002428182127,0.0,0.9013098236775818,50,1148,4264,772024,no_split,narrow,individual,1,0.48667049407958984
0,0.0,0.42984286979769204,0.35911481348773716,0.3791733987465299,0.3935898574339392,0.40661598030765334,0.4194437928610024,0.43365187056612736,0.4518544812465201,0.47367458906901827,0.5115226858112619,0.8688557393416093,0.9906878306878307,0.4441120143394158,0.0,0.9753260869565218,50,1148,5281,772024,no_split,narrow,individual,1,0.4861161708831787
1,1.0,0.45917831779408497,0.3728136584795745,0.39738177502504335,0.41657522837076794,0.4336087623264784,0.45124867564860743,0.46938185004927435,0.489600895314705,0.5156798536672784,0.5540212666021008,0.8842352056671414,0.9591061452513967,0.4441120143394158,0.0,0.9753260869565218,50,1148,5281,772024,no_split,narrow,individual,1,0.4861161708831787
0,0.0,0.45663632270439797,0.3683128742742589,0.3912178069381457,0.4095952076812745,0.4257149018145863,0.4427213100697779,0.4610511492714823,0.48324229521826617,0.5111165061924755,0.5612240063295716,0.9827261610783723,0.9947826086956522,0.47405229849044467,0.0,0.9794594594594594,50,1148,5332,772024,no_split,narrow,individual,1,0.48767733573913574
1,1.0,0.4912810057196522,0.3940865221399154,0.4224777472239372,0.4435340006662321,0.4642698810017619,0.4837648134927758,0.5043070851374163,0.5271709086612566,0.556098891303703,0.5973240704374527,0.968037032217547,0.9643010752688173,0.47405229849044467,0.0,0.9794594594594594,50,1148,5332,772024,no_split,narrow,individual,1,0.48767733573913574
0,0.0,0.4554069463253997,0.3727067446113004,0.3948428270471975,0.41320363246844066,0.42883720016146637,0.445165430577282,0.46223850627552504,0.4810798998602214,0.5077202327686869,0.5482270419652961,0.9893240137981378,0.983756345177665,0.4696805924098408,0.0,0.9625641025641025,50,1148,5575,772024,no_split,narrow,individual,1,0.4888944625854492
1,1.0,0.48425006535613546,0.38904889983245167,0.4153398626654164,0.4365361202161743,0.45602541500017413,0.47540439069187956,0.4956498452677358,0.5181572624005433,0.5467132576701967,0.5912216400283103,1.07290594802965,0.9409326424870467,0.4696805924098408,0.0,0.9625641025641025,50,1148,5575,772024,no_split,narrow,individual,1,0.4888944625854492
0,0.0,0.4563561568050762,0.3640707546035699,0.386948941377149,0.4046883838153263,0.4224919570721436,0.43967171665129,0.459534678373603,0.48244254811725906,0.5135425614822673,0.5699769167168858,1.199765722564441,0.9613471502590674,0.4665912044554896,0.0,0.9296938775510204,50,1148,5731,772024,no_split,narrow,individual,1,0.48645925521850586
1,1.0,0.47651765770438304,0.3778305301870867,0.40392417423415444,0.42386265337618084,0.4430459903620557,0.46289569844388434,0.4843791350467895,0.5090827683396055,0.5400409642371776,0.5916643494828386,1.0406545916184702,0.8989949748743719,0.4665912044554896,0.0,0.9296938775510204,50,1148,5731,772024,no_split,narrow,individual,1,0.48645925521850586
0,0.0,0.4384855579941818,0.3604061403821211,0.38347129439106553,0.399828966721601,0.41469688404325594,0.428900855120946,0.4444529643282844,0.46249715665152397,0.4858102717913875,0.5241708625411132,1.0041863699806832,0.9952173913043478,0.4630695112048182,0.0,0.9661035422343325,50,1148,5761,772024,no_split,narrow,individual,1,0.48496484756469727
1,1.0,0.4877878029575893,0.39272370925595884,0.4207624630760074,0.4430539329368456,0.46345176394651205,0.48124763587258435,0.5008425744991065,0.5237059866513623,0.5487158648385101,0.5904253365098994,0.9448771732227756,0.9368306010928962,0.4630695112048182,0.0,0.9661035422343325,50,1148,5761,772024,no_split,narrow,individual,1,0.48496484756469727
0,0.0,0.44378590809699964,0.3352494534651397,0.36153856305431215,0.3820080679810609,0.4004003643929837,0.42137095329599683,0.4437578414265681,0.47294645669662233,0.5131132260202149,0.5842543144483453,1.113780618817504,0.9329761904761905,0.45307393399340445,0.0,0.8978861788617886,50,1148,5803,772024,no_split,narrow,individual,1,0.48834872245788574
1,1.0,0.4608370601157727,0.3463873509535579,0.37520223552773957,0.39794443160052545,0.41971442517050944,0.44176795079787134,0.46527005254628556,0.49523234536692795,0.5348162364795228,0.5993138653140978,1.3286066508005183,0.8685572139303482,0.45307393399340445,0.0,0.8978861788617886,50,1148,5803,772024,no_split,narrow,individual,1,0.48834872245788574
0,0.0,0.5059255371726732,0.37817885286699027,0.4107117072446588,0.4339151294845401,0.45613108880257724,0.47938741491171766,0.5071959564000079,0.5394560516481962,0.5862604093122527,0.6676004943665645,1.5024101569106252,0.9624875621890547,0.5204436013174175,0.0,0.9301808785529716,50,1148,5815,772024,no_split,narrow,individual,1,0.48655056953430176
1,1.0,0.5361324770867377,0.39744167172117933,0.43254744799001865,0.46374785544684516,0.4914846980956622,0.5187968841884585,0.5482783224608543,0.5830121379440107,0.6279834087757057,0.694318107190694,1.3285363274809703,0.8952688172043011,0.5204436013174175,0.0,0.9301808785529716,50,1148,5815,772024,no_split,narrow,individual,1,0.48655056953430176
0,0.0,0.4183930320984512,0.35295412995339465,0.36866653905502444,0.38154152010869424,0.393967856603952,0.4059695306775546,0.4188773601417559,0.43495318296318536,0.456437426034784,0.49860901201972296,0.9984055440936646,0.9926966292134831,0.4427720085678434,0.0,0.9685558583106267,50,1148,6055,772024,no_split,narrow,individual,1,0.49094462394714355
1,1.0,0.4657321028088583,0.37086071194516507,0.39604377970255955,0.41770262796505847,0.43714430203414295,0.4574228716370603,0.47784544117812705,0.5001457967454555,0.5286581051274432,0.5691200527010389,0.9443814709789297,0.9458201058201058,0.4427720085678434,0.0,0.9685558583106267,50,1148,6055,772024,no_split,narrow,individual,1,0.49094462394714355
0,0.0,0.47973281998302464,0.36107629042465184,0.38688217031349553,0.40722983793085205,0.4282325557647223,0.4514389200905321,0.4794049476781619,0.5120051988872929,0.5580874290873801,0.6355293218317082,1.379716222484735,0.9423469387755102,0.48391136918607647,0.0,0.9320765027322404,50,1148,6109,772024,no_split,narrow,individual,1,0.4876415729522705
1,1.0,0.4887289906201831,0.36979119314149567,0.3957760244681763,0.4184127931152521,0.440669123368742,0.4656468553048578,0.49069313491062017,0.5247013711431603,0.5658911583783696,0.6382783634305339,1.3756472916401572,0.920235294117647,0.48391136918607647,0.0,0.9320765027322404,50,1148,6109,772024,no_split,narrow,individual,1,0.4876415729522705
0,0.0,0.40362028678605366,0.3332275801899945,0.34911720947653424,0.3626517703468466,0.3746863846988355,0.3875800658918864,0.40184005677743156,0.41939444677094556,0.4466283340292398,0.4939427453960713,1.0395486373081066,0.9873584905660377,0.4233264273252935,0.0,0.9385131894484412,50,1148,6214,772024,no_split,narrow,individual,1,0.4856245517730713
1,1.0,0.4437054604683123,0.3553156227317111,0.380327991658865,0.4000706410824945,0.41837921738344674,0.43527192957361105,0.4531016257781341,0.4738433307515403,0.4998456905684045,0.5421708668567427,0.9999310188753248,0.888,0.4233264273252935,0.0,0.9385131894484412,50,1148,6214,772024,no_split,narrow,individual,1,0.4856245517730713
0,0.0,0.46386751490077305,0.36380066976535247,0.3907863334661279,0.41087381705516635,0.43055575577378896,0.44948665799459553,0.46993459495392464,0.49517579769562403,0.5273855779545296,0.5771302155123704,1.339790598187806,0.9364893617021277,0.46960872377223406,0.0,0.9272148541114058,50,1148,6253,772024,no_split,narrow,individual,1,0.48671746253967285
1,1.0,0.47531955587717944,0.3670044444813539,0.39491973322381135,0.4162104941443259,0.4366577070894,0.45696430823225287,0.47958249989389456,0.507616697925628,0.5466560641649857,0.6073657747220894,1.2299743631222162,0.917989417989418,0.46960872377223406,0.0,0.9272148541114058,50,1148,6253,772024,no_split,narrow,individual,1,0.48671746253967285
0,0.0,0.4653049809833937,0.37871580031224816,0.4030323989779849,0.42155094572898605,0.4401667391167089,0.45664027177432276,0.47415435698713637,0.4935379360548224,0.5201902870260864,0.5608195336714025,1.12110983961858,0.9793370165745856,0.47919462192306295,0.0,0.9480434782608695,50,1148,6262,772024,no_split,narrow,individual,1,0.4888947010040283
1,1.0,0.4926386059341867,0.39721102750225074,0.4257518693413003,0.44775045101862815,0.4672824676354876,0.48652544897966676,0.5053724690445297,0.5273298821546558,0.5544282027823872,0.5943879232755558,0.9400659839337074,0.9177540106951871,0.47919462192306295,0.0,0.9480434782608695,50,1148,6262,772024,no_split,narrow,individual,1,0.4888947010040283
0,0.0,0.503849969416251,0.4111077511252418,0.43389808139031244,0.45299212817240564,0.46981162024559675,0.48688315227878687,0.5069246575347316,0.5316171672049635,0.5651772353028957,0.617373032291681,1.3108971612818479,0.9891978609625669,0.5140984416314395,0.0,0.9761413043478261,50,1148,6361,772024,no_split,narrow,individual,1,0.48677515983581543
1,1.0,0.5246866422073525,0.42559187422642086,0.45356009915191536,0.4751092191837174,0.49518482682902576,0.5135177875816879,0.5341678281510719,0.558966359965365,0.5887771785417966,0.6366322267227648,1.0124201658435816,0.9626519337016575,0.5140984416314395,0.0,0.9761413043478261,50,1148,6361,772024,no_split,narrow,individual,1,0.48677515983581543
0,0.0,0.41980147733883666,0.3424301325510851,0.36336781029006776,0.3804517611415531,0.3948835994657587,0.4102013890510615,0.4257728727289486,0.44440915850782065,0.4694261007854505,0.5097836179554742,0.8761323382920794,0.981639344262295,0.43018182202845723,0.0,0.9551052631578948,50,1148,6427,772024,no_split,narrow,individual,1,0.4836111068725586
1,1.0,0.4398244772477494,0.35560560088618165,0.37969409545491617,0.3980822844853982,0.41539391126359654,0.43157719091453295,0.4493520119411551,0.46885979495052493,0.49403400637287687,0.5346524556783672,0.9329741450333163,0.9304568527918782,0.43018182202845723,0.0,0.9551052631578948,50,1148,6427,772024,no_split,narrow,individual,1,0.4836111068725586
0,0.0,0.4734333997796825,0.3867435345811502,0.4055614061497745,0.42193083178665514,0.43796775804803856,0.45571752596077997,0.47467515138718686,0.4979770613802976,0.53171051609461,0.5842912628384294,1.0586108006142827,0.9743455497382199,0.4785139278807782,0.0,0.9576781002638522,50,1148,6583,772024,no_split,narrow,individual,1,0.4866962432861328
1,1.0,0.4836755282388062,0.3967227509688009,0.41957607249531703,0.4375901626839896,0.45382743064448083,0.4706243153146688,0.48921915558064444,0.5111223276557898,0.5399030726078038,0.5861734738001055,0.9992104920677236,0.9407446808510638,0.4785139278807782,0.0,0.9576781002638522,50,1148,6583,772024,no_split,narrow,individual,1,0.4866962432861328
0,0.0,0.44696665686998827,0.36162579179605536,0.3835443212160542,0.4007512025671351,0.41651211066422567,0.43230269408947775,0.4498100436661822,0.4714440135086358,0.4999327150813104,0.5491802922075599,1.022201469079226,0.9854358974358974,0.4668551495699337,0.0,0.9483589743589743,50,1148,6634,772024,no_split,narrow,individual,1,0.486541748046875
1,1.0,0.4867436422698789,0.38437928828588513,0.4121519213081212,0.43373093526610446,0.4551550424325073,0.47485709369886453,0.49646945797111974,0.5212298386733647,0.5531816653273915,0.6036606278017792,1.1513956602212276,0.9112820512820513,0.4668551495699337,0.0,0.9483589743589743,50,1148,6634,772024,no_split,narrow,individual,1,0.486541748046875
0,0.0,0.45874102237270153,0.38255912303161377,0.4027939544333535,0.4186359260260858,0.4324397627049358,0.44713334866934074,0.46231092241266225,0.48050225522538853,0.5046927154593508,0.5473808738227864,1.059906752635416,0.9885263157894737,0.48465740005614527,0.0,0.94608,50,1148,6844,772024,no_split,narrow,individual,1,0.4850442409515381
1,1.0,0.511274220379682,0.4061044117941435,0.43478900091016026,0.4586799681663674,0.48121332691682644,0.5025354973801491,0.5232457446708831,0.5490239864859126,0.5811172860027503,0.6277147237821451,1.1123291812346023,0.9024864864864864,0.48465740005614527,0.0,0.94608,50,1148,6844,772024,no_split,narrow,individual,1,0.4850442409515381
0,0.0,0.44803300610642643,0.35823349622417694,0.3807341952140767,0.3993190533181678,0.4156314257835651,0.4333435258122833,0.45088396628109334,0.4717513336742083,0.5016471212806508,0.5547705398020851,1.2049909027305228,0.9808743169398907,0.4656250962874638,0.0,0.9479019073569482,50,1148,7624,772024,no_split,narrow,individual,1,0.4854013919830322
1,1.0,0.48312157728273464,0.37742877460970836,0.405314595772553,0.427732953346284,0.4490961688576745,0.46981479073778065,0.4933031917363057,0.5201173257722725,0.5534638657021,0.6044088759897412,1.2551392871833535,0.9151086956521739,0.4656250962874638,0.0,0.9479019073569482,50,1148,7624,772024,no_split,narrow,individual,1,0.4854013919830322
0,0.0,0.41162387643620196,0.34217083992049085,0.3591334546946702,0.37197237220208246,0.38377021783312665,0.3963277995219492,0.41014327169369946,0.42730483119382373,0.454126465742894,0.5004059565567841,1.079958285559819,0.9794652406417113,0.4302764213233349,0.0,0.9340992167101828,50,1148,7756,772024,no_split,narrow,individual,1,0.4806985855102539
1,1.0,0.44807247180238513,0.35965530064703494,0.3827998570731678,0.4016332333375806,0.4196508090102651,0.4371694782256894,0.4563986352039872,0.47752587157522575,0.5055529408953936,0.5489919884872096,1.0840086056417235,0.8908163265306123,0.4302764213233349,0.0,0.9340992167101828,50,1148,7756,772024,no_split,narrow,individual,1,0.4806985855102539
0,0.0,0.43493723629849274,0.34137076897202684,0.366667500511569,0.38554322578242517,0.40325902539674907,0.4204493008685374,0.44124593324648204,0.46433498264982587,0.4962470651766951,0.5446253217824296,1.1041085085813518,0.9817708333333334,0.445619951455037,0.0,0.9714973262032086,50,1148,7768,772024,no_split,narrow,individual,1,0.47859907150268555
1,1.0,0.45688962898281993,0.3500606960905997,0.3797752901900072,0.40230788130998507,0.4236299108164984,0.44490302094358225,0.4671191611735088,0.4930335052520918,0.5259253387248666,0.5812546135110772,0.960738607281703,0.9606593406593407,0.445619951455037,0.0,0.9714973262032086,50,1148,7768,772024,no_split,narrow,individual,1,0.47859907150268555
0,0.0,0.4061239409619398,0.31817504500898053,0.3410623002922939,0.35699236687688796,0.3734343802739324,0.38883783761818846,0.4067609955737474,0.42814515505983813,0.4575743664152209,0.5140354058151734,1.4042439534799893,0.973475935828877,0.42742332853742454,0.0,0.9264516129032258,50,1148,7807,772024,no_split,narrow,individual,1,0.48304295539855957
1,1.0,0.44895297976237397,0.3357024297825268,0.36570944357990587,0.3893413876452294,0.4119521208809289,0.4351375733873728,0.45933086284335883,0.4891264771431562,0.5248004140096059,0.5780435463709838,1.2353773484991843,0.8789189189189189,0.42742332853742454,0.0,0.9264516129032258,50,1148,7807,772024,no_split,narrow,individual,1,0.48304295539855957
0,0.0,0.4045569431667522,0.3281975615743925,0.34579711195794305,0.36025572609281387,0.3735720089807195,0.3881036568427999,0.40377461604056375,0.42395247275470843,0.4520328453676609,0.5039555523202685,0.9119039003643719,0.9834065934065934,0.41963567745706637,0.0,0.9531855955678671,50,1148,7813,772024,no_split,narrow,individual,1,0.4854013919830322
1,1.0,0.43496712796453657,0.34624464168349683,0.36898280343649004,0.3884650765983428,0.4062243423549388,0.4248234506215717,0.4429380067042373,0.46459018413994685,0.4934989503344997,0.53704634812878,1.0690401041142463,0.9224581005586592,0.41963567745706637,0.0,0.9531855955678671,50,1148,7813,772024,no_split,narrow,individual,1,0.4854013919830322
0,0.0,0.4119638644428367,0.3500165014703681,0.366965316927527,0.38085338559947457,0.3930998112192196,0.40518696648766617,0.418366802070905,0.432884391076708,0.4519163756405833,0.4805785196706744,0.7709938003137895,0.9964893617021277,0.43474353256764914,0.0,0.9609405940594059,50,1148,7828,772024,no_split,narrow,individual,1,0.4859580993652344
1,1.0,0.45457028075035616,0.37621430409256584,0.39919433818905226,0.4182787735323034,0.4343556371453578,0.4503044938719232,0.4668673081213132,0.4846758196852078,0.5050729499705782,0.5385322635515093,0.8303000257636065,0.93,0.43474353256764914,0.0,0.9609405940594059,50,1148,7828,772024,no_split,narrow,individual,1,0.4859580993652344
0,0.0,0.5448091342910247,0.4025431155406384,0.432193343338829,0.4582720489924147,0.4841646582218795,0.5098784873906768,0.5414415459360243,0.5816874677273306,0.6402605381239764,0.7365773396661609,1.455362403399002,0.9789417989417989,0.5640518174193582,0.0,0.9582428940568476,50,1148,7840,772024,no_split,narrow,individual,1,0.48489856719970703
1,1.0,0.5824198331327672,0.42676926395487497,0.466200047023205,0.49929410054486684,0.5306782342220849,0.560491617261224,0.5939785875622826,0.6309702435721113,0.6784835228081073,0.7639280371803681,1.5758682948064202,0.9384848484848485,0.5640518174193582,0.0,0.9582428940568476,50,1148,7840,772024,no_split,narrow,individual,1,0.48489856719970703
0,0.0,0.4752168666679656,0.3918141758106293,0.4127340869242962,0.43003078553257335,0.4455161254099025,0.46214067321652363,0.47985546582603583,0.5014699351404778,0.5301478908417547,0.5753934943785769,0.9533930691764486,0.9985555555555555,0.4974134165558929,0.0,0.99088,50,1148,7924,772024,no_split,narrow,individual,1,0.4848365783691406
1,1.0,0.5179025395293643,0.42104980001898407,0.44881720377441153,0.470759556260567,0.4899911244846402,0.509411340873124,0.5295642298044744,0.5535245507746849,0.5835668745890832,0.6246231031827602,0.9610953518633567,0.9837948717948718,0.4974134165558929,0.0,0.99088,50,1148,7924,772024,no_split,narrow,individual,1,0.4848365783691406
0,0.0,0.46412477864078344,0.3742542315376926,0.3984201741072695,0.4159560194685139,0.43298953886397135,0.4500860437412386,0.46769140919509916,0.48949661209263506,0.5210104611572483,0.5736579093244369,1.0473561621162313,0.9892631578947368,0.4794716244885575,0.0,0.9745316455696202,50,1148,7939,772024,no_split,narrow,individual,1,0.47998499870300293
1,1.0,0.4936955303962506,0.39484766963972096,0.42275684708481864,0.4438876390308808,0.4639876558735318,0.4841760512638627,0.503718300519791,0.5287885861182506,0.5587174308233034,0.6059125208320113,1.131929835283784,0.9608780487804878,0.4794716244885575,0.0,0.9745316455696202,50,1148,7939,772024,no_split,narrow,individual,1,0.47998499870300293
0,0.0,0.45181629006706875,0.3631043064629399,0.38513397878037714,0.40335424207397036,0.4192589240088259,0.4350899486401941,0.45376506501404484,0.4761695955665111,0.505313562277443,0.5607004974134796,1.0528046182819264,0.9727272727272728,0.4656016921630455,0.0,0.9427118644067797,50,1148,8026,772024,no_split,narrow,individual,1,0.47636938095092773
1,1.0,0.4776365670087395,0.377320657084288,0.4024327206906761,0.4240849787957767,0.44486167809687205,0.4653343393491953,0.4869166081528037,0.5116139251090787,0.5433003993353556,0.5935094155269709,1.2182647980740489,0.9165079365079365,0.4656016921630455,0.0,0.9427118644067797,50,1148,8026,772024,no_split,narrow,individual,1,0.47636938095092773
0,0.0,0.4543126556857783,0.34882998085879313,0.3731609301526547,0.3933987513242107,0.4121951640150468,0.43124495270403035,0.4529851520590756,0.4813823885360714,0.5204336226064542,0.590808106921169,1.2621225864333432,0.9373262032085562,0.4611567601523505,0.0,0.9141917808219178,50,1148,8311,772024,no_split,narrow,individual,1,0.4828526973724365
1,1.0,0.46834691484476065,0.3522509468678356,0.3804734599117527,0.4024210855992478,0.42245122014850867,0.4451908422987425,0.4715272934716558,0.5051523620834073,0.5458376713080476,0.611141086836547,1.345819612381494,0.8898876404494382,0.4611567601523505,0.0,0.9141917808219178,50,1148,8311,772024,no_split,narrow,individual,1,0.4828526973724365
0,0.0,0.3911233481186494,0.3228728539217331,0.34208057385959595,0.3567980721953864,0.3702102056580276,0.3828635081884653,0.39665284801804096,0.4125166377954904,0.43290167704619786,0.4673162455083102,0.949359106956299,0.9842487046632125,0.4108812563846281,0.0,0.9338753387533876,50,1148,8446,772024,no_split,narrow,individual,1,0.48429203033447266
1,1.0,0.4325475989717524,0.3395779563907293,0.36644587086980324,0.3873133017905396,0.4063278715866517,0.42450971912635493,0.4442894017039185,0.4664960354102142,0.4948189631189952,0.5342809644591656,0.8171974033159647,0.8786363636363637,0.4108812563846281,0.0,0.9338753387533876,50,1148,8446,772024,no_split,narrow,individual,1,0.48429203033447266
0,0.0,0.4870642503486732,0.4003272825610883,0.42271729948069436,0.43916995295401495,0.4557573951454522,0.4736095417467613,0.49062872400309365,0.5120941190111721,0.5415091677708103,0.5915240872478237,1.1429443231190872,0.9773869346733668,0.49683276200566806,0.0,0.9628571428571429,50,1148,8521,772024,no_split,narrow,individual,1,0.4836719036102295
1,1.0,0.5072840191010551,0.4102783265191817,0.43539195793048385,0.4564144264046362,0.4753618268870025,0.4950512888364963,0.5157109086744108,0.5387680094165989,0.5710158701819338,0.6208342938838266,1.0339073832741814,0.9473118279569892,0.49683276200566806,0.0,0.9628571428571429,50,1148,8521,772024,no_split,narrow,individual,1,0.4836719036102295
0,0.0,0.5542521535934721,0.43413654555802106,0.4658279063629492,0.4903657787194096,0.5132721454008808,0.5368377766575493,0.5623469779952375,0.5919142464590864,0.6317080671627149,0.6937764888102066,1.5267019634115095,0.9842622950819672,0.5635375641303592,0.0,0.979083094555874,50,1148,8704,772024,no_split,narrow,individual,1,0.4791858196258545
1,1.0,0.5737738902041564,0.44064656344821396,0.4749724168310553,0.5034610472389233,0.5284183661433473,0.5549039798196722,0.5843270250612757,0.6198878672913749,0.66151811075595,0.7282336657844127,1.2647151018626963,0.9733734939759037,0.5635375641303592,0.0,0.979083094555874,50,1148,8704,772024,no_split,narrow,individual,1,0.4791858196258545
0,0.0,0.4543123271165588,0.36235835827015694,0.38520350367522355,0.4035969225388698,0.420386076883598,0.4387731201537842,0.4584853745195527,0.4829514171597401,0.5150984290737421,0.5670764431393048,0.9902354508024699,0.9902415458937198,0.46596862496327135,0.0,0.9804123711340206,50,1148,8755,772024,no_split,narrow,individual,1,0.4781363010406494
1,1.0,0.47929930813603094,0.37581043568088884,0.4036347534555603,0.42588697317862606,0.44715099864658625,0.4674337700877915,0.4902826984351264,0.5160293185248926,0.5481977524490708,0.5967493568871115,1.0713778450921736,0.9691712707182321,0.46596862496327135,0.0,0.9804123711340206,50,1148,8755,772024,no_split,narrow,individual,1,0.4781363010406494
0,0.0,0.4667458781371458,0.3654044128481718,0.3897526835662805,0.40987239575426027,0.4288159770631054,0.44798370319772174,0.4701830484253585,0.4977203026502786,0.5338510062404864,0.5949685727455547,1.1006289346852032,0.9828846153846154,0.4732003051595865,0.0,0.9589,50,1148,8785,772024,no_split,narrow,individual,1,0.4959995746612549
1,1.0,0.48019260110056394,0.38513315549964716,0.41164897697962244,0.43185221067905266,0.4510766129722526,0.4684044592786589,0.48871952800098356,0.5107687151285509,0.5406243175613582,0.5878812736492806,1.2306489995693513,0.9329166666666666,0.4732003051595865,0.0,0.9589,50,1148,8785,772024,no_split,narrow,individual,1,0.4959995746612549
0,0.0,0.41274225221756344,0.3267420336872631,0.3446009442367666,0.35980370611204787,0.3739664554648476,0.3895904343997052,0.40662184137185436,0.42826415356840714,0.4626192998925476,0.5262465765610279,1.3015804893939062,0.9726595744680852,0.4324162874369951,0.0,0.9130591259640103,50,1148,8788,772024,no_split,narrow,individual,1,0.4619169235229492
1,1.0,0.45081787261735906,0.34472439049236114,0.37140894667951435,0.39333896817645136,0.41472085370309275,0.43481080435566294,0.458934809267447,0.48549319145831654,0.5209053656170354,0.5756459992309663,1.1766483095241287,0.8573134328358208,0.4324162874369951,0.0,0.9130591259640103,50,1148,8788,772024,no_split,narrow,individual,1,0.4619169235229492
0,0.0,0.43416300730898133,0.3770989761990219,0.39265051102149856,0.40469633725630993,0.41464940259252436,0.4258379860651671,0.43734406744330273,0.4512083390243957,0.46858861466580454,0.5004972290339228,0.7929731563165381,0.9933333333333333,0.45138930004755534,0.0,0.963224043715847,50,1148,161753,772024,no_split,narrow,individual,1,0.46393799781799316
1,1.0,0.4680599059235947,0.3977823428908544,0.41840953341590575,0.43502703729584785,0.448929265285973,0.46232328368817555,0.47689278400058543,0.4940798234822631,0.5136199696857663,0.5419327539633719,0.8739018666419078,0.9340860215053763,0.45138930004755534,0.0,0.963224043715847,50,1148,161753,772024,no_split,narrow,individual,1,0.46393799781799316
0,0.0,0.4496159066524342,0.37439830360117693,0.3941027112234481,0.4090644387129171,0.4231505564027208,0.4380221724768265,0.4536564517063165,0.47150479578099763,0.49625117433547317,0.538145470952882,1.055487511526278,0.993298969072165,0.467081425520875,0.0,0.9837234042553191,50,1148,337788,772024,no_split,narrow,individual,1,0.46381235122680664
1,1.0,0.4856985170619603,0.3877329336102732,0.4146908302544431,0.43606159744849676,0.45623080712979935,0.4760188596399998,0.4976516228274086,0.5210727030180572,0.5502934994192114,0.594459097582675,1.0493669959979115,0.9735164835164836,0.467081425520875,0.0,0.9837234042553191,50,1148,337788,772024,no_split,narrow,individual,1,0.46381235122680664
