,congruency,mean_rt,qu10_rt,qu20_rt,qu30_rt,qu40_rt,qu50_rt,qu60_rt,qu70_rt,qu80_rt,qu90_rt,qu100_rt,mean_acc,mean_rt_overall,nonconvergent_trials,accuracy_overall,n_posterior_draws,condition,id,slurm_id,split,spacing,estimation_level,number_parts,time_post_sampling_sec
0,0.0,0.41652316080886254,0.3248209938765502,0.3425928696864424,0.3600642119150127,0.37688742671014597,0.39590994033265237,0.4163021345464071,0.44209737061175114,0.4782720542748805,0.5344038113442072,1.0821728856004922,0.9833684210526316,0.4231569675479324,0.0,0.9788888888888889,50,1162,1108,772034,no_split,wide,individual,1,0.4685680866241455
1,1.0,0.42986134669912013,0.3305156689015904,0.354006993486716,0.3729869196902341,0.39304132454369406,0.4128161530750226,0.43396564440384017,0.46117288560049224,0.4951798933603852,0.5511755710125761,1.1823678947942409,0.9743617021276596,0.4231569675479324,0.0,0.9788888888888889,50,1162,1108,772034,no_split,wide,individual,1,0.4685680866241455
0,0.0,0.42942410446362045,0.3272010426175916,0.35100698747844933,0.3709131189129571,0.38986397302218734,0.4100011546306211,0.4330476765396006,0.45976587597491536,0.49488546146712326,0.5528895620822095,1.068038762124964,0.9888888888888889,0.44270617993006434,0.0,0.9855263157894737,50,1162,1507,772034,no_split,wide,individual,1,0.4862809181213379
1,1.0,0.45584917607225234,0.3319678640679401,0.36021679764490583,0.3848996502763318,0.4088720642518702,0.43370307701448035,0.4630249923287005,0.4984594130879916,0.541384207264432,0.6058782031138906,1.2209334528720754,0.9821989528795811,0.44270617993006434,0.0,0.9855263157894737,50,1162,1507,772034,no_split,wide,individual,1,0.4862809181213379
0,0.0,0.44557458090346613,0.3451798415945371,0.36792652901413725,0.3878679351791162,0.4070862115424028,0.42740148426549096,0.449320654731088,0.47575357629257403,0.5108450590383449,0.5672465677513914,1.154092860422598,0.988,0.45393115142425633,0.0,0.9866666666666667,50,1162,1538,772034,no_split,wide,individual,1,0.48331737518310547
1,1.0,0.4622439702669272,0.3506113781600425,0.3766089299008224,0.39945955628197816,0.4225217817884499,0.44348959626729995,0.46926997535400833,0.49909157386523034,0.5358188195094578,0.5959280537277033,1.2754329714642472,0.9853403141361257,0.45393115142425633,0.0,0.9866666666666667,50,1162,1538,772034,no_split,wide,individual,1,0.48331737518310547
0,0.0,0.4621095182879173,0.359692573081729,0.3828349380207533,0.4040732507433759,0.42432862943034017,0.44483976746366327,0.46728589042291474,0.49482978991855403,0.5312957887396716,0.5875436965692551,1.0031638909447287,0.9939130434782608,0.465513863176284,0.0,0.9911891891891892,50,1162,1582,772034,no_split,wide,individual,1,0.4823610782623291
1,1.0,0.4688816022056359,0.36403762784917193,0.38929657250076977,0.4118406610772215,0.43183753342976794,0.4523138915844461,0.47541190121569654,0.5024156988853461,0.5383420307740869,0.5914111249596483,1.2013144158984015,0.988494623655914,0.465513863176284,0.0,0.9911891891891892,50,1162,1582,772034,no_split,wide,individual,1,0.4823610782623291
0,0.0,0.42981307439211414,0.3304054188354148,0.35144552586724775,0.3706014159340551,0.389190074972925,0.40918276391513203,0.4316322372496758,0.45926570139549105,0.49486133805302823,0.5549084424072376,1.280176987215391,0.988586387434555,0.4429114498517673,0.0,0.9853263707571801,50,1162,1583,772034,no_split,wide,individual,1,0.47884082794189453
1,1.0,0.45594160460590133,0.3347694477105077,0.3631700808865034,0.38753934286310665,0.41225748871977086,0.43726201193583647,0.46561394838462583,0.49826847866458707,0.5364068931859417,0.5985964857039666,1.2479899355396584,0.9820833333333333,0.4429114498517673,0.0,0.9853263707571801,50,1162,1583,772034,no_split,wide,individual,1,0.47884082794189453
0,0.0,0.5439885915755466,0.36230193037326114,0.40471496770783005,0.4401746943746938,0.47607586300473986,0.5125423401308342,0.5527194456374551,0.5998552680288545,0.6612653622230248,0.764979838193325,1.4722482577042215,0.9925423728813559,0.5531000381515694,0.0,0.9891208791208791,50,1162,1597,772034,no_split,wide,individual,1,0.4772465229034424
1,1.0,0.5617242415951846,0.36754132136804907,0.4134752389833037,0.4532881485815978,0.49276036184043187,0.53497439979196,0.5763183661481289,0.6259996878415479,0.690856981548307,0.7901038057436334,1.4395263408098102,0.9858823529411764,0.5531000381515694,0.0,0.9891208791208791,50,1162,1597,772034,no_split,wide,individual,1,0.4772465229034424
0,0.0,0.39990874331400555,0.31757412860438394,0.3388387755184763,0.3567736218723132,0.37344250540766916,0.3895504562089695,0.40754515367044825,0.4285504562089695,0.45405991251122724,0.49453040325934255,0.8685527163249153,0.996421052631579,0.41084683274602884,0.0,0.9963060686015831,50,1162,1601,772034,no_split,wide,individual,1,0.47378015518188477
1,1.0,0.4218427956671105,0.31931805653885803,0.34451434164450195,0.3649123009785094,0.38493182989849994,0.40515918634094406,0.42971155379455594,0.4570030138360065,0.4922931206463817,0.5458262812135004,0.9173541640952466,0.9961904761904762,0.41084683274602884,0.0,0.9963060686015831,50,1162,1601,772034,no_split,wide,individual,1,0.47378015518188477
0,0.0,0.4780944440940838,0.33785362083534287,0.36744496471061433,0.39366208836331495,0.4203356204108193,0.4469378737924382,0.4780675577729512,0.5149434912095218,0.5713318830870692,0.6545832760739168,1.4635878408661889,0.9807368421052631,0.4864238125151364,0.0,0.978,50,1162,1614,772034,no_split,wide,individual,1,0.4663524627685547
1,1.0,0.49475318093618903,0.3413630025452797,0.37545161587005677,0.4050156196100302,0.4352752806981472,0.4669893940785156,0.5011669041742307,0.543362033075229,0.5971193799224194,0.6803709377819315,1.3593620259320351,0.9752631578947368,0.4864238125151364,0.0,0.978,50,1162,1614,772034,no_split,wide,individual,1,0.4663524627685547
0,0.0,0.4215217129360125,0.359447137874588,0.37550376569938554,0.38929959621710014,0.4018666799495614,0.4149678260033576,0.4282805921703099,0.4441435242890373,0.46308684590028937,0.49098467130175916,0.7654332065199422,0.9983157894736842,0.4276749434927192,0.0,0.9980577427821522,50,1162,161753,772034,no_split,wide,individual,1,0.4713904857635498
1,1.0,0.4337959581826369,0.36040991148607743,0.37898049517442484,0.39486277033385264,0.40993497388357863,0.4247214465306039,0.4417399546940551,0.45998049517442485,0.4834227067415618,0.5172002642431938,0.8272655307459502,0.9978010471204188,0.4276749434927192,0.0,0.9980577427821522,50,1162,161753,772034,no_split,wide,individual,1,0.4713904857635498
0,0.0,0.461301726173268,0.3501354206398719,0.3760225176748857,0.3976726122522994,0.4194312382223003,0.4415156067745888,0.4666661503146547,0.49647140997874933,0.5353564328464261,0.5974195694449733,1.1280148817462774,0.9934042553191489,0.4678559935622536,0.0,0.9922955145118734,50,1162,1638,772034,no_split,wide,individual,1,0.46094465255737305
1,1.0,0.4743073143430352,0.355554641342786,0.3849994291615585,0.4074252307351218,0.43265447689072944,0.4566556555294655,0.48293978548968475,0.5127631704526039,0.553469052152599,0.6166343300069285,1.3317034249220723,0.9912041884816754,0.4678559935622536,0.0,0.9922955145118734,50,1162,1638,772034,no_split,wide,individual,1,0.46094465255737305
0,0.0,0.3914233575853437,0.31485220417082704,0.3314983146294891,0.34696087129349124,0.36274099606840726,0.37836050513078834,0.39576103159005005,0.41620435420111423,0.4419709280481675,0.4822177928304547,0.8783709220516416,0.9891578947368421,0.39997587279156505,0.0,0.9855936675461742,50,1162,1657,772034,no_split,wide,individual,1,0.45831823348999023
1,1.0,0.4085736394009939,0.31532884021101143,0.33570531780975416,0.3538650617765319,0.37290953630045504,0.3918804460732563,0.41425764500064305,0.4397331219871229,0.4705480035345887,0.5240993452466887,1.0437092365682816,0.982010582010582,0.39997587279156505,0.0,0.9855936675461742,50,1162,1657,772034,no_split,wide,individual,1,0.45831823348999023
0,0.0,0.4578302747681217,0.363572015638138,0.3841123022531533,0.4017802637067403,0.42080583023162954,0.43921666845641594,0.4612937942377319,0.48632261359924434,0.5207050511993634,0.5767032934637755,1.0293454766790073,0.989468085106383,0.4679501008403946,0.0,0.9867724867724867,50,1162,1663,772034,no_split,wide,individual,1,0.4599628448486328
1,1.0,0.4779634024276962,0.3713565079086666,0.39635445281882314,0.4196774126747746,0.4406010094357412,0.46238659539387966,0.4864958913408268,0.5145384414859624,0.549252105698071,0.6019764721346592,1.22118569057443,0.9841052631578947,0.4679501008403946,0.0,0.9867724867724867,50,1162,1663,772034,no_split,wide,individual,1,0.4599628448486328
0,0.0,0.49435781918211186,0.36246487488916346,0.3943101872380655,0.4209310827885141,0.446327021457472,0.47192669829491796,0.5008325084231628,0.5344911463403784,0.5793263959909598,0.6512090985436468,1.3161562662666744,0.9931182795698925,0.5093662192512981,0.0,0.9919034852546917,50,1162,1761,772034,no_split,wide,individual,1,0.4606447219848633
1,1.0,0.5242943604965848,0.36442454847904393,0.4031634086052799,0.43504775029070586,0.4683473495610498,0.5023416696504122,0.537467610233112,0.5797849899023437,0.6343303170451714,0.7121815203144245,1.3033509811561372,0.9906951871657754,0.5093662192512981,0.0,0.9919034852546917,50,1162,1761,772034,no_split,wide,individual,1,0.4606447219848633
0,0.0,0.43863763595285205,0.3134305251083764,0.3410841370720087,0.36395191626371565,0.3869616607174846,0.4117595696273527,0.43990658126689697,0.4745548438183321,0.5212688669160089,0.5994979501374768,1.3878104984499298,0.981675392670157,0.4502432380470929,0.0,0.9807329842931937,50,1162,1768,772034,no_split,wide,individual,1,0.45629096031188965
1,1.0,0.46184884014133365,0.3166097589930711,0.349276096974914,0.378741964216756,0.40628691520110566,0.4367641334115938,0.4709551024125184,0.5094844759484152,0.5596005542663541,0.6379083000720781,1.363574065886437,0.9797905759162304,0.4502432380470929,0.0,0.9807329842931937,50,1162,1768,772034,no_split,wide,individual,1,0.45629096031188965
0,0.0,0.37231660169713376,0.28718149362973505,0.30510321367157617,0.3224174070439754,0.33826399037737803,0.3545006309746289,0.37365129635316185,0.39784508290469084,0.4288187645351372,0.4788092316620675,1.0349928241627413,0.9789361702127659,0.37839473999500606,0.0,0.9768617021276595,50,1162,1813,772034,no_split,wide,individual,1,0.4594876766204834
1,1.0,0.3844728782928784,0.28810319152767505,0.3081031693837739,0.3260699418116178,0.34431567167198535,0.36510310295207055,0.38678981317021915,0.4144671823911139,0.45043517159389607,0.5064221482672665,1.0070681877251642,0.9747872340425532,0.37839473999500606,0.0,0.9768617021276595,50,1162,1813,772034,no_split,wide,individual,1,0.4594876766204834
0,0.0,0.38909923658027196,0.3008006322658046,0.3212943818289738,0.3392864137441968,0.3565715708933522,0.3743326923534087,0.39504710817167604,0.417551962680387,0.44659513544180174,0.4931346537229043,1.107591599560816,0.9929473684210526,0.3933950951242698,0.0,0.9909711286089239,50,1162,1821,772034,no_split,wide,individual,1,0.45847153663635254
1,1.0,0.39766846226227803,0.30452438709813834,0.32543642309555815,0.3439508221942902,0.3625715708933522,0.38159513544180174,0.40309657907776875,0.4272278362609846,0.4597127501197655,0.5131362908007892,0.9640612731252,0.9890052356020942,0.3933950951242698,0.0,0.9909711286089239,50,1162,1821,772034,no_split,wide,individual,1,0.45847153663635254
0,0.0,0.4331078606899639,0.33032039396459123,0.3573189958958613,0.3784199365064694,0.39831032205648154,0.41916061499146695,0.44071456368737355,0.46678368821741995,0.5003782772574257,0.5503667588490269,1.0531985553492533,0.9927748691099476,0.4384759304794259,0.0,0.9927659574468085,50,1162,275,772034,no_split,wide,individual,1,0.45732665061950684
1,1.0,0.44401809982962714,0.33137665803635163,0.3572758824253042,0.38104261658300526,0.402926521104964,0.4271752156798194,0.45131934618963726,0.4812588053466975,0.5198291653661457,0.5790429640277223,1.059560976723746,0.9927567567567568,0.4384759304794259,0.0,0.9927659574468085,50,1162,275,772034,no_split,wide,individual,1,0.45732665061950684
0,0.0,0.3744666225060326,0.2905764218269439,0.30976105009895333,0.3260827412543478,0.3421898506038427,0.35900506545884153,0.37741414830247627,0.40012792210268544,0.42947238677181887,0.4773629501885334,0.9012548408036319,0.9913829787234043,0.3835385438898578,0.0,0.9891777188328913,50,1162,3286,772034,no_split,wide,individual,1,0.4583282470703125
1,1.0,0.3925624656896417,0.29541054386796284,0.31721640469879536,0.3382939640766781,0.3582501874357555,0.37855151194485126,0.4002939640766781,0.4254855252483779,0.458017096747389,0.5077681634324345,1.0881729212225346,0.986984126984127,0.3835385438898578,0.0,0.9891777188328913,50,1162,3286,772034,no_split,wide,individual,1,0.4583282470703125
0,0.0,0.44351413258326966,0.3365986842345445,0.3601325893962206,0.3822660314028311,0.4024363502936848,0.42429632712271353,0.44820785723514867,0.47641710852187075,0.5134184063015671,0.5791329231102724,1.2356345159285331,0.9964021164021164,0.4550317062594713,0.0,0.9937203166226913,50,1162,3292,772034,no_split,wide,individual,1,0.4618527889251709
1,1.0,0.46648866112685083,0.3451356581170208,0.3762461401842722,0.4033499576480831,0.42850488837690387,0.45229224692565567,0.47641970408126344,0.5062477078192757,0.5451604841464703,0.604661137896743,1.081158770637585,0.9910526315789474,0.4550317062594713,0.0,0.9937203166226913,50,1162,3292,772034,no_split,wide,individual,1,0.4618527889251709
0,0.0,0.44394304306920124,0.3547755381256586,0.3759083924565401,0.39414886394164056,0.412537461388098,0.4309588591273862,0.4502972393602358,0.4739731877986878,0.5050811813122958,0.5494064113715945,0.8838842906036195,0.996,0.44977875877579054,0.0,0.9961679790026247,50,1162,337788,772034,no_split,wide,individual,1,0.4630162715911865
1,1.0,0.45558392099700507,0.3558009441812796,0.3797079018460148,0.4000440744230792,0.42002771522724186,0.4406984139832853,0.46299224541356193,0.48915517687085136,0.5221240110476767,0.5746611012960692,1.3445229750025889,0.9963350785340314,0.44977875877579054,0.0,0.9961679790026247,50,1162,337788,772034,no_split,wide,individual,1,0.4630162715911865
0,0.0,0.39863152227144777,0.3085017839190005,0.32729917150026133,0.34421050588918345,0.36086031652933553,0.37875763025607656,0.40037775950041526,0.4240723129583922,0.4572570543760103,0.5122694302261672,0.9655017839190004,0.9894117647058823,0.4130737656732073,0.0,0.9848387096774194,50,1162,3487,772034,no_split,wide,individual,1,0.4632713794708252
1,1.0,0.42767214143606697,0.3175266160918317,0.3432766770116522,0.36677255781369483,0.38848628032624144,0.4125816555299665,0.4375128204402588,0.4655149135370598,0.5010393344052553,0.5592156342876737,1.0497866873531794,0.9802162162162162,0.4130737656732073,0.0,0.9848387096774194,50,1162,3487,772034,no_split,wide,individual,1,0.4632713794708252
0,0.0,0.3977205433004249,0.3181550291512923,0.33959398398712154,0.35603000311241323,0.3715602223954244,0.3872351156372801,0.403823427654389,0.42331655375771515,0.44859949481788974,0.48921019217842265,0.803422374465636,0.9973821989528796,0.40472952360458836,0.0,0.9964550264550265,50,1162,3580,772034,no_split,wide,individual,1,0.46643757820129395
1,1.0,0.4118884286211405,0.32064787366357433,0.3440807957890018,0.3633900465200011,0.3815973512887308,0.40035038535740897,0.421666249388923,0.44497971930380903,0.4736370917266864,0.5168338580039772,0.8401627565163049,0.9955080213903743,0.40472952360458836,0.0,0.9964550264550265,50,1162,3580,772034,no_split,wide,individual,1,0.46643757820129395
0,0.0,0.4597693214715422,0.3334402138992409,0.35843127062046537,0.38071144840069804,0.40321610334054686,0.4289726489986549,0.45834604317429806,0.4932316726412972,0.5430356628294154,0.62739673057101,1.4771927493894212,0.9889010989010989,0.4769093245071806,0.0,0.9814917127071823,50,1162,3625,772034,no_split,wide,individual,1,0.46539974212646484
1,1.0,0.4942397720209928,0.34477029817353905,0.3804737040354804,0.41036133917973683,0.4421946297529847,0.4736493666169316,0.5090098121816402,0.5462187090366999,0.5942296234093425,0.6684427141592689,1.2903851598821807,0.974,0.4769093245071806,0.0,0.9814917127071823,50,1162,3625,772034,no_split,wide,individual,1,0.46539974212646484
0,0.0,0.5338940479806265,0.41518715801904726,0.4444750831135401,0.46939964126382533,0.4931414922218579,0.5183760349570555,0.5424715439640737,0.5739509015940302,0.6138020032936466,0.6721331736388835,1.2956676194275434,0.9980104712041885,0.5422143491995186,0.0,0.9971653543307086,50,1162,3754,772034,no_split,wide,individual,1,0.4734072685241699
1,1.0,0.5505784414774576,0.4207825506448743,0.4541438229026973,0.48245488588901936,0.5091414922218579,0.5363239741027345,0.5641416959391733,0.5974758418288205,0.6388922894416541,0.6989453161368747,1.1928688203370765,0.9963157894736843,0.5422143491995186,0.0,0.9971653543307086,50,1162,3754,772034,no_split,wide,individual,1,0.4734072685241699
0,0.0,0.4074223359047016,0.3246983063678053,0.34331864989739447,0.3601917869168828,0.3759731356122791,0.3929788414545892,0.4117378868076098,0.4335880034572579,0.46060695890802184,0.5087077250978023,0.9884161970597206,0.984021164021164,0.4144734065305479,0.0,0.9820052770448549,50,1162,3910,772034,no_split,wide,individual,1,0.4740712642669678
1,1.0,0.4214873662583635,0.3260721247093555,0.34654949878128205,0.36457103022754084,0.3835857376373236,0.4035815655820796,0.4255937700108458,0.4516002566054244,0.48606170834070267,0.5419719537050502,1.016714139689456,0.98,0.4144734065305479,0.0,0.9820052770448549,50,1162,3910,772034,no_split,wide,individual,1,0.4740712642669678
0,0.0,0.40203858807176146,0.32312909925515787,0.34148442343180363,0.3560201126789997,0.3704311117783753,0.3867241044390902,0.4052224307934534,0.4263110549646139,0.4545035740480099,0.49861707353900614,0.8849886183370497,0.9918947368421053,0.4057924678106866,0.0,0.9890765171503958,50,1162,4222,772034,no_split,wide,individual,1,0.4788823127746582
1,1.0,0.4095662093471722,0.327619682381452,0.34802019696399145,0.36414960449820377,0.3802275181808526,0.39761968238145196,0.41599379715733087,0.4370528086518471,0.4644424957478729,0.5069633367128139,0.8927258630922568,0.9862433862433863,0.4057924678106866,0.0,0.9890765171503958,50,1162,4222,772034,no_split,wide,individual,1,0.4788823127746582
0,0.0,0.4520175706008447,0.3216182437210648,0.3466182437210648,0.370130989311392,0.3926439263581014,0.4185505919531356,0.4486352776702783,0.48569931040246106,0.5381329931229655,0.6242582674641961,1.4578046396445519,0.9662433862433862,0.46095873462200865,0.0,0.9567195767195767,50,1162,4264,772034,no_split,wide,individual,1,0.48342180252075195
1,1.0,0.46989989864317266,0.32978138526814055,0.35909607396228577,0.38660970503255754,0.4138515404459129,0.44363793392920786,0.47489934554744473,0.5126617244857296,0.5632927135195516,0.6422893653506656,1.350499262395032,0.9471957671957671,0.46095873462200865,0.0,0.9567195767195767,50,1162,4264,772034,no_split,wide,individual,1,0.48342180252075195
0,0.0,0.4314626100216571,0.36104015908924586,0.37543615489671045,0.38890782463602513,0.40273145488542145,0.41711978784335974,0.43369366039212426,0.4519677947847587,0.4782129020217788,0.5209614584862674,0.9794740845514469,0.9863829787234043,0.43590930477343015,0.0,0.9824533333333333,50,1162,5281,772034,no_split,wide,individual,1,0.479733943939209
1,1.0,0.4403797786415228,0.36498218889264766,0.3821207013074829,0.3970177638922061,0.41230071386611,0.42799463230119295,0.4455875679655605,0.46464322336670705,0.4918601026775133,0.5302477677703265,0.9785503599284834,0.9785026737967915,0.43590930477343015,0.0,0.9824533333333333,50,1162,5281,772034,no_split,wide,individual,1,0.479733943939209
