,congruency,mean_rt,qu10_rt,qu20_rt,qu30_rt,qu40_rt,qu50_rt,qu60_rt,qu70_rt,qu80_rt,qu90_rt,qu100_rt,mean_acc,mean_rt_overall,nonconvergent_trials,accuracy_overall,n_posterior_draws,condition,id,slurm_id,split,spacing,estimation_level,number_parts,time_post_sampling_sec
0,0.0,0.4255437007970729,0.33654636320830983,0.35129684609970263,0.36514982566786525,0.38029531657982,0.3975706839650062,0.4190987763729978,0.4470828165602596,0.4855273909363853,0.5513105820695615,1.3716568163120462,0.9885263157894737,0.43311078628857935,0.0,0.9855026455026455,50,1166,1108,772031,no_split,wide,individual,1,0.499814510345459
1,1.0,0.44075837268957,0.35073247494441934,0.3676721730086716,0.38336592579200046,0.3993494229861415,0.41714982566786524,0.43780039568201967,0.46555625041661236,0.5001097693809028,0.5597819718304252,1.145208486299456,0.9824468085106383,0.43311078628857935,0.0,0.9855026455026455,50,1166,1108,772031,no_split,wide,individual,1,0.499814510345459
0,0.0,0.4494002557885313,0.34779523248075056,0.3665093422536526,0.3832143454967498,0.4004347976291288,0.4195562705187966,0.442461439910599,0.4734783039552832,0.5155375689617229,0.5849837332828807,1.3745820085189207,0.9921693121693121,0.4638644061644712,0.0,0.9883684210526316,50,1166,1507,772031,no_split,wide,individual,1,0.47826433181762695
1,1.0,0.4781770994684117,0.35200506652890634,0.37577833255524334,0.39777072397177426,0.42176784267431416,0.44788889526653136,0.47777339992143375,0.5162315251739388,0.5654362770594313,0.6455108078610013,1.2834347976291287,0.984607329842932,0.4638644061644712,0.0,0.9883684210526316,50,1166,1507,772031,no_split,wide,individual,1,0.47826433181762695
0,0.0,0.4572572883533993,0.35813245837649377,0.3763374708731136,0.3933047687782201,0.4104640763957766,0.4296395934865055,0.45272744965426137,0.4818737514581987,0.5200849022500788,0.5881378418583476,1.4543094226739035,0.996421052631579,0.4665323669554162,0.0,0.9952230971128609,50,1166,1538,772031,no_split,wide,individual,1,0.47832226753234863
1,1.0,0.47575888493648005,0.3644923616075571,0.38697091155241664,0.40644514132614523,0.42767042736516386,0.4502445069328863,0.4769238867310682,0.5073945106683292,0.5474140765050326,0.6200471062208223,1.371427656633267,0.9940314136125654,0.4665323669554162,0.0,0.9952230971128609,50,1166,1538,772031,no_split,wide,individual,1,0.47832226753234863
0,0.0,0.47456650177817444,0.3713118408075131,0.39093281940943586,0.4095211895946519,0.42821798827770163,0.448731935236031,0.47257519568624157,0.5014584937288721,0.5420156526379195,0.6129877890425339,1.295798016167333,0.9967391304347826,0.47851553174292183,0.0,0.9963243243243243,50,1166,1582,772031,no_split,wide,individual,1,0.47641539573669434
1,1.0,0.48242209901987615,0.3812615410311831,0.4012185809068134,0.41872242181491165,0.4373877252053631,0.45622077922787635,0.4797332920283462,0.5095171019066628,0.5491285108567528,0.6153023857729182,1.3904331131019627,0.9959139784946237,0.47851553174292183,0.0,0.9963243243243243,50,1166,1582,772031,no_split,wide,individual,1,0.47641539573669434
0,0.0,0.44620266327577246,0.3473002403408588,0.36428675289493556,0.3800364404606389,0.3971013305500253,0.41587588506410667,0.43804400739532634,0.46901698880091847,0.509001770335242,0.5850622531783155,1.3660196342057411,0.9904712041884817,0.4589649018715922,0.0,0.986266318537859,50,1166,1583,772031,no_split,wide,individual,1,0.4842402935028076
1,1.0,0.4716606704747253,0.36209088753162666,0.38340369147977776,0.40278808588351633,0.42259190485345693,0.4440553577973575,0.4675801294565497,0.4991599805229775,0.5460402239279827,0.6171173091568118,1.3628758850641065,0.9820833333333333,0.4589649018715922,0.0,0.986266318537859,50,1166,1583,772031,no_split,wide,individual,1,0.4842402935028076
0,0.0,0.5880627752493035,0.38633517480419066,0.42667633513408193,0.46222295147402814,0.4981953173557727,0.5387559672806925,0.58556290728725,0.6436227455763638,0.7212770279271995,0.864037995571944,1.4563675978670831,0.9899435028248588,0.5889282517502037,0.0,0.9907142857142858,50,1166,1597,772031,no_split,wide,individual,1,0.477994441986084
1,1.0,0.5897474460852805,0.3967499967267509,0.4318121447822728,0.466126755010016,0.5005359276885805,0.5382293865734993,0.5828965826181349,0.6416426231096498,0.7211041902006771,0.8593406251209447,1.4646831646608607,0.9914438502673797,0.5889282517502037,0.0,0.9907142857142858,50,1166,1597,772031,no_split,wide,individual,1,0.477994441986084
0,0.0,0.41171471051664804,0.33116077593595344,0.3487702669090542,0.3647120754785954,0.3790185455333257,0.39471913395537234,0.4134542849890466,0.43551329802023214,0.46448201206833395,0.5141138782809062,0.9743642852194477,1.0,0.42274545430223337,0.0,0.9998944591029024,50,1166,1601,772031,no_split,wide,individual,1,0.4829847812652588
1,1.0,0.43383456181155194,0.3423578226323724,0.36285542446426083,0.3805404068833313,0.39751584196877304,0.4158597924595521,0.4365107540716913,0.460825710320293,0.4936735000530143,0.5467123420534615,1.1157736164770313,0.9997883597883598,0.42274545430223337,0.0,0.9998944591029024,50,1166,1601,772031,no_split,wide,individual,1,0.4829847812652588
0,0.0,0.4912448067865124,0.3484986757997515,0.3748764312107343,0.3970706381913943,0.42148558820763987,0.4499473409135214,0.4836422674494656,0.5258904829822098,0.5855489418795584,0.6874385852667664,1.4338338148032117,0.987578947368421,0.5029972278391439,0.0,0.9839473684210527,50,1166,1614,772031,no_split,wide,individual,1,0.48511552810668945
1,1.0,0.5147496488917755,0.3594135644083062,0.38721209868629736,0.41422121993542577,0.44250309740049604,0.4737119726020431,0.5098103260430199,0.5574609350731187,0.6249948812620032,0.72308473776935,1.417119947640612,0.9803157894736843,0.5029972278391439,0.0,0.9839473684210527,50,1166,1614,772031,no_split,wide,individual,1,0.48511552810668945
0,0.0,0.4357274513875145,0.3754781144722926,0.3900442202969534,0.4023203697062502,0.41345863373235453,0.425343947411137,0.4384364485415971,0.4531482031166393,0.4740888499320595,0.5084606447585154,0.9104191515598814,1.0,0.4418724581564053,0.0,0.9998950131233596,50,1166,161753,772031,no_split,wide,individual,1,0.4845564365386963
1,1.0,0.44798529211498767,0.38022461836217814,0.3954774546123743,0.40907491453449535,0.4225330429931386,0.436263648006002,0.4508204709364429,0.46958191239357366,0.49279777267652086,0.5319838043273717,0.8758452497636581,0.9997905759162303,0.4418724581564053,0.0,0.9998950131233596,50,1166,161753,772031,no_split,wide,individual,1,0.4845564365386963
0,0.0,0.48190341773680445,0.369424616606062,0.38956112734108356,0.4094104044127225,0.42986870112072495,0.4529231309250177,0.47811676237596945,0.5110024011365595,0.5572032959401142,0.6308837473358603,1.3736602119291241,0.9971276595744681,0.4886774111685677,0.0,0.9967282321899736,50,1166,1638,772031,no_split,wide,individual,1,0.48421621322631836
1,1.0,0.49534500679773785,0.3776894945011738,0.4016203048681523,0.42299802572553913,0.4442121757655441,0.4667528814135006,0.49282836461768303,0.5277730518074983,0.5726799758143797,0.6485736519284078,1.4698560413730184,0.9963350785340314,0.4886774111685677,0.0,0.9967282321899736,50,1166,1638,772031,no_split,wide,individual,1,0.48421621322631836
0,0.0,0.40200214228504305,0.3229418816745965,0.3367671680968926,0.34977922087115865,0.36378580894504486,0.3796159205602186,0.3978004271910119,0.4216900279746803,0.4547597672899989,0.5120775927279579,0.9867060821510404,0.9907368421052631,0.4132671082619907,0.0,0.9865435356200528,50,1166,1657,772031,no_split,wide,individual,1,0.4916529655456543
1,1.0,0.42459167723352537,0.3316247238461624,0.348785361407696,0.36556961156916706,0.3826937504879222,0.4004622584483364,0.42184277425202843,0.44974976783120435,0.4876596055935391,0.5478303649731341,1.1314112976546782,0.9823280423280424,0.4132671082619907,0.0,0.9865435356200528,50,1166,1657,772031,no_split,wide,individual,1,0.4916529655456543
0,0.0,0.46984175893640584,0.377473538194911,0.3944637073402646,0.4099466749784354,0.42572414084697896,0.4447799765322401,0.46596346418585544,0.49399036379947747,0.5296103939188497,0.5932819523174017,1.3468289889522724,0.9971276595744681,0.479864965060463,0.0,0.9945502645502645,50,1166,1663,772031,no_split,wide,individual,1,0.47788310050964355
1,1.0,0.48978266375163537,0.3873802957541606,0.40877755971575475,0.4287594783089372,0.4468099100160742,0.46708137065736854,0.49037897904973354,0.5169899493327198,0.5560899282580972,0.6192382935591184,1.4720813706573685,0.992,0.479864965060463,0.0,0.9945502645502645,50,1166,1663,772031,no_split,wide,individual,1,0.47788310050964355
0,0.0,0.5279155567907793,0.3839425021327672,0.4104376912038038,0.43525485440934164,0.46317457266807077,0.49227726149996553,0.5244441405278919,0.5658066393795865,0.6221389277977146,0.7193498100958151,1.4453271393570375,0.996021505376344,0.5378294352536925,0.0,0.994691689008043,50,1166,1761,772031,no_split,wide,individual,1,0.48127269744873047
1,1.0,0.5476902983237562,0.39635532899909137,0.4272631749809343,0.45432469085921695,0.48148470220977563,0.5121643787786283,0.5458116957752532,0.5862674009366436,0.6450422662927612,0.743194914689909,1.4693271393570375,0.9933689839572193,0.5378294352536925,0.0,0.994691689008043,50,1166,1761,772031,no_split,wide,individual,1,0.48127269744873047
0,0.0,0.46625919469076427,0.33432088206513155,0.356162354790375,0.37729491820325617,0.40152689028000704,0.42771421825185446,0.45753862294861153,0.49689757784027316,0.5524868572285296,0.6514622121641581,1.4363870033789021,0.9796858638743455,0.47700814757034543,0.0,0.9739790575916231,50,1166,1768,772031,no_split,wide,individual,1,0.4820590019226074
1,1.0,0.4877571004499265,0.3415062513436438,0.3679039585158101,0.3936790771160205,0.4203595327581288,0.4508108769681931,0.4861371836657002,0.5305131640172598,0.5896517453939509,0.6828975778402733,1.4005000354098758,0.9682722513089005,0.47700814757034543,0.0,0.9739790575916231,50,1166,1768,772031,no_split,wide,individual,1,0.4820590019226074
0,0.0,0.3808930478376555,0.2968422205501637,0.3119251459237238,0.325416210782336,0.3401790016946472,0.3555714248938393,0.3750615517929679,0.4000319810334895,0.43347236448775917,0.49534702793153423,1.2861509497628727,0.983404255319149,0.390473420178081,0.0,0.9790425531914894,50,1166,1813,772031,no_split,wide,individual,1,0.49629759788513184
1,1.0,0.40005379251850653,0.3006481813836594,0.31767313974480443,0.3343402768422437,0.3518676890891214,0.37109867638568106,0.3950326396631606,0.4265193143780946,0.46803395553647786,0.5431348462216647,1.1353163898309566,0.9746808510638297,0.390473420178081,0.0,0.9790425531914894,50,1166,1813,772031,no_split,wide,individual,1,0.49629759788513184
0,0.0,0.3976810489824839,0.31132727028873786,0.3282110485408764,0.3425822866956694,0.35795707941145116,0.37515825608643283,0.39550308509156135,0.4195369413424008,0.45435317353544047,0.5146592332082407,0.992989029857959,0.9972631578947369,0.4018520645923747,0.0,0.9968503937007874,50,1166,1821,772031,no_split,wide,individual,1,0.4832015037536621
1,1.0,0.4060012424242034,0.31698682294789726,0.33517401747491854,0.3506987054525645,0.36659319536255586,0.3841740174749185,0.40396303547215834,0.43072190132355564,0.4667999778595127,0.5235175428269672,0.9925682017724827,0.9964397905759163,0.4018520645923747,0.0,0.9968503937007874,50,1166,1821,772031,no_split,wide,individual,1,0.4832015037536621
0,0.0,0.44730096431027916,0.3473884221103861,0.36908576289018685,0.3877332583412205,0.4057274599130569,0.42493747520241604,0.4483914373848559,0.4756102232829481,0.5145138678205736,0.5729871964848486,1.126103395482534,0.9989528795811519,0.452161023071558,0.0,0.9987234042553191,50,1166,275,772031,no_split,wide,individual,1,0.4822242259979248
1,1.0,0.45717870536022964,0.348773020422564,0.3704633279712094,0.3897216313702086,0.4093904299525831,0.4300831608965763,0.45575231095550733,0.48740125748711494,0.5299856481081835,0.6004012874637025,1.2990805589029657,0.9984864864864865,0.452161023071558,0.0,0.9987234042553191,50,1166,275,772031,no_split,wide,individual,1,0.4822242259979248
0,0.0,0.3808442875712973,0.30658296994826134,0.32068763367399933,0.33377797294004596,0.3469750292707393,0.36193016615479556,0.37889982097513847,0.3999476922779434,0.4289292736527267,0.47756564873195395,1.1445312911602123,0.9947872340425532,0.3895329215235519,0.0,0.99342175066313,50,1166,3286,772031,no_split,wide,individual,1,0.4902491569519043
1,1.0,0.3981755838675936,0.30820274825896543,0.3243462921782678,0.34034629217826784,0.3576024259873898,0.37634629217826787,0.39744980802547,0.4229340338092004,0.46094403872116724,0.5182353039824485,1.0938090123590538,0.9920634920634921,0.3895329215235519,0.0,0.99342175066313,50,1166,3286,772031,no_split,wide,individual,1,0.4902491569519043
0,0.0,0.45672588264601266,0.35603580003009855,0.37568970169939686,0.39298839382591777,0.41101706321560794,0.4307141927725664,0.4534118345535401,0.48121925726182,0.5224512525322332,0.5917522775257812,1.2578958942253369,0.9986243386243386,0.4745441144171731,0.0,0.9968337730870712,50,1166,3292,772031,no_split,wide,individual,1,0.48541998863220215
1,1.0,0.492268566021117,0.36750110051727486,0.3937276673881801,0.41548638004341926,0.4398094674199202,0.46449976382209246,0.49446810651501677,0.5308771352700367,0.5768808870610967,0.6513179824070062,1.4656305609419438,0.9950526315789474,0.4745441144171731,0.0,0.9968337730870712,50,1166,3292,772031,no_split,wide,individual,1,0.48541998863220215
0,0.0,0.45298122689594245,0.36709917864042957,0.3850218745152202,0.4015161281366677,0.41759252257928464,0.43482251717622933,0.45455544496376227,0.4782725154375887,0.5101496050249145,0.5611686753670626,1.2104315610965846,0.999578947368421,0.46045484479896776,0.0,0.9994225721784777,50,1166,337788,772031,no_split,wide,individual,1,0.4835176467895508
1,1.0,0.4678893338124484,0.37228662073985974,0.39213511986463856,0.41084028895357794,0.42928890875883885,0.4482945531932747,0.47103424255134224,0.4955676983541579,0.5309324769253618,0.5898720572650384,1.3156928408161381,0.9992670157068063,0.46045484479896776,0.0,0.9994225721784777,50,1166,337788,772031,no_split,wide,individual,1,0.4835176467895508
0,0.0,0.4078408534453956,0.3219606390607203,0.3371008443551617,0.35156299846311945,0.36568560106896386,0.38290599083454796,0.4019606390607203,0.42616510966717774,0.4617955566680087,0.5239392046270303,1.1479606390607202,0.9944385026737967,0.4263316762847953,0.0,0.9871505376344086,50,1166,3487,772031,no_split,wide,individual,1,0.4806654453277588
1,1.0,0.44502239991164794,0.33304058759305666,0.3541686102571161,0.375484641158694,0.3966353340845047,0.4200425473944017,0.44699351002332777,0.47898150242775595,0.5211617387584867,0.5916547181694383,1.1530696484426344,0.9797837837837838,0.4263316762847953,0.0,0.9871505376344086,50,1166,3487,772031,no_split,wide,individual,1,0.4806654453277588
0,0.0,0.4110351216571086,0.3363414382429867,0.3507833431704264,0.3637427098498394,0.3768291914238761,0.3917459833838452,0.40920699468568755,0.43023993711718106,0.46035853985586195,0.5102729995336185,1.1707045673955354,0.998848167539267,0.41908382134408056,0.0,0.9981481481481481,50,1166,3580,772031,no_split,wide,individual,1,0.47412824630737305
1,1.0,0.42730468573023905,0.35135973028348577,0.367210149895854,0.3817045092383313,0.39478398574849527,0.4094470405617176,0.42704472142712674,0.44783967391251345,0.4772901075980673,0.5254470405617175,1.0543441642328262,0.9974331550802139,0.41908382134408056,0.0,0.9981481481481481,50,1166,3580,772031,no_split,wide,individual,1,0.47412824630737305
0,0.0,0.4804920504857383,0.353207588591921,0.37390330498452246,0.39354692650444645,0.4152774958126183,0.43884427162688383,0.467844360441059,0.5061276859864482,0.5601456973915246,0.6620495359530831,1.469748390607879,0.9883516483516483,0.5046729982120453,0.0,0.9807734806629834,50,1166,3625,772031,no_split,wide,individual,1,0.46039247512817383
1,1.0,0.5291226231353109,0.37517762799365717,0.4063831396268791,0.43494242963123436,0.4639033049845224,0.4952616788629946,0.5323368226125521,0.5748568889332906,0.6332152707095696,0.7259462876564164,1.4447212957108826,0.9731111111111111,0.5046729982120453,0.0,0.9807734806629834,50,1166,3625,772031,no_split,wide,individual,1,0.46039247512817383
0,0.0,0.5536777501275191,0.4317687643795436,0.45694777425306954,0.4802262677200673,0.5021574372580517,0.5269166019472337,0.5549985005554176,0.5895107590676337,0.6336090673926508,0.7086107521511055,1.3407683333531428,0.9997905759162303,0.5601163426987357,0.0,0.9997900262467192,50,1166,3754,772031,no_split,wide,individual,1,0.45723986625671387
1,1.0,0.5665888225992743,0.44355400953580093,0.4708058764707731,0.49413283802932084,0.5178880038940891,0.5435848686638696,0.570466783089284,0.6034301741129587,0.6478493157112383,0.7190060547618269,1.2936355951322462,0.9997894736842106,0.5601163426987357,0.0,0.9997900262467192,50,1166,3754,772031,no_split,wide,individual,1,0.45723986625671387
0,0.0,0.4187238606287995,0.33544752464441324,0.3511775876086629,0.36547846652720134,0.38006287219712476,0.39629446182990785,0.41623948111882764,0.44029446182990783,0.4716779879395008,0.5299184259172102,1.0767980936886552,0.9903703703703703,0.4258691594519348,0.0,0.9872823218997362,50,1166,3910,772031,no_split,wide,individual,1,0.4555542469024658
1,1.0,0.4329768514391588,0.3390880014639036,0.35642910124893357,0.3731694686725124,0.38976286385583186,0.4085279565397645,0.42971658805831436,0.457373825020867,0.4944982456203205,0.5601667198715828,1.2052077735866003,0.9842105263157894,0.4258691594519348,0.0,0.9872823218997362,50,1166,3910,772031,no_split,wide,individual,1,0.4555542469024658
0,0.0,0.4117053309841027,0.33536851657963473,0.3494523597636198,0.3622086135202089,0.37547078216322405,0.3903075724674815,0.40847785993198693,0.4319531830507086,0.4638103850269878,0.5144766229991472,1.0608645664270566,0.9908421052631579,0.4162243438989756,0.0,0.9908179419525066,50,1166,4222,772031,no_split,wide,individual,1,0.4466087818145752
1,1.0,0.4207672669350913,0.34384765168272,0.35848790336519143,0.37148532518864946,0.385373307051625,0.400548124760271,0.41846532454792695,0.4398472765582067,0.4716201634202568,0.5238408437969928,1.1108959712526576,0.9907936507936508,0.4162243438989756,0.0,0.9908179419525066,50,1166,4222,772031,no_split,wide,individual,1,0.4466087818145752
0,0.0,0.46453279322621543,0.3359591256609311,0.3558080673570159,0.37492491135396744,0.3966011911299466,0.42084507797105214,0.45168586814752454,0.4921164499546542,0.5499965446391836,0.65054748150687,1.445196339500497,0.9701587301587301,0.47807575618917836,0.0,0.9602116402116402,50,1166,4264,772031,no_split,wide,individual,1,0.44481849670410156
1,1.0,0.4916187191521414,0.3539565318521304,0.37980776335811367,0.4036317753348365,0.42799275589606206,0.45651551372840715,0.48792051553284826,0.5254982167802316,0.582648415538009,0.6774665666285503,1.4383793808026621,0.9502645502645503,0.47807575618917836,0.0,0.9602116402116402,50,1166,4264,772031,no_split,wide,individual,1,0.44481849670410156
0,0.0,0.43978388856457407,0.3729980382536911,0.38627206520355317,0.39745892224482066,0.4094796046455848,0.42265529222512976,0.43811661902895693,0.45765331192877734,0.48464420813762993,0.5277643169066879,1.129375684247851,0.997872340425532,0.44534419778443224,0.0,0.9962133333333333,50,1166,5281,772031,no_split,wide,individual,1,0.44536566734313965
1,1.0,0.45093424127819337,0.3771065768899968,0.3914904257912775,0.40419171364551265,0.41857920313137403,0.4337800209564505,0.4510841719589727,0.4721794716251536,0.5001126352451155,0.5461602225587167,1.0701086514612739,0.9945454545454545,0.44534419778443224,0.0,0.9962133333333333,50,1166,5281,772031,no_split,wide,individual,1,0.44536566734313965
0,0.0,0.46709868798075993,0.3726412177500565,0.39496568781133773,0.41300932624821934,0.4311260088800627,0.4516098689911083,0.47101981286532757,0.49517608449615796,0.5280935688140412,0.5818110353463805,0.9790093262482193,1.0,0.47440165094372283,0.0,0.9998933333333333,50,1166,5332,772031,no_split,wide,individual,1,0.4471917152404785
1,1.0,0.48182240363189494,0.3804956520952918,0.40473668381264855,0.4238759290688256,0.4441300348080977,0.46472336272636505,0.48660726756574696,0.5134055237466986,0.5491260088800627,0.606789528501675,1.2432885721865778,0.9997849462365591,0.47440165094372283,0.0,0.9998933333333333,50,1166,5332,772031,no_split,wide,individual,1,0.4471917152404785
0,0.0,0.4520854864279954,0.3446143615407748,0.3634574269008653,0.38168895444304807,0.40070463512680543,0.4214835311887979,0.4475514189102586,0.4804441235792145,0.524612890297808,0.6038494173321377,1.210561750290763,0.9953684210526316,0.4650517397261485,0.0,0.9928232189973615,50,1166,5575,772031,no_split,wide,individual,1,0.4450819492340088
1,1.0,0.4780865975391066,0.36857985894505635,0.3907772995575111,0.41053111750526067,0.429963347297441,0.450465703826874,0.47477714606677257,0.5064945177660407,0.5497251773036069,0.622211713367543,1.252975520324563,0.9902645502645503,0.4650517397261485,0.0,0.9928232189973615,50,1166,5575,772031,no_split,wide,individual,1,0.4450819492340088
0,0.0,0.4611930601013512,0.3518984249667529,0.37013775136033605,0.3876835729085965,0.40715098177373926,0.4295019894407365,0.4549253563345474,0.489147069644461,0.5344317807703285,0.6150731497086103,1.4061377513603361,0.9827322404371585,0.4640934937248469,0.0,0.9826415094339622,50,1166,5731,772031,no_split,wide,individual,1,0.446016788482666
1,1.0,0.46691678815622856,0.36035668761586603,0.38053544830906727,0.39814310052044,0.4165457792359826,0.43640486049637595,0.46216181223063735,0.4934511237011869,0.5382750048525867,0.6137961509062991,1.4642679894037445,0.9825531914893617,0.4640934937248469,0.0,0.9826415094339622,50,1166,5731,772031,no_split,wide,individual,1,0.446016788482666
0,0.0,0.4346500696096363,0.3430690023043439,0.3604818432723423,0.3767034555947176,0.392605417781194,0.41088076509521043,0.4324818432723423,0.4568401580990608,0.49330168696343063,0.5572949856900513,1.1453937441484832,0.9987234042553191,0.4481025068239261,0.0,0.9983023872679045,50,1166,5761,772031,no_split,wide,individual,1,0.44783997535705566
1,1.0,0.4614837671217381,0.36098967789243136,0.3822116842847997,0.40093087192137156,0.4187823092438991,0.4394856984303151,0.46170217264126534,0.48881418123018683,0.5274945907965257,0.5928375175791611,1.2687394857895846,0.9978835978835979,0.4481025068239261,0.0,0.9983023872679045,50,1166,5761,772031,no_split,wide,individual,1,0.44783997535705566
0,0.0,0.44292464679488786,0.32347131819349945,0.3428486110892953,0.36179216541447873,0.3819899652790594,0.40501696404747756,0.4334067302551187,0.471112989175704,0.523687239172034,0.6109100343891182,1.423337783468592,0.953125,0.44575449054488786,0.0,0.9508854166666667,50,1166,5803,772031,no_split,wide,individual,1,0.44992494583129883
1,1.0,0.44858433429488787,0.3257594556168532,0.346918109455416,0.36688753075814995,0.3870347964140361,0.41079216541447877,0.4399168163437887,0.4786074933128381,0.5294836121095123,0.6193596800031771,1.3667020338262073,0.9486458333333333,0.44575449054488786,0.0,0.9508854166666667,50,1166,5803,772031,no_split,wide,individual,1,0.44992494583129883
0,0.0,0.5114362664359947,0.3695883783869134,0.3947962321425054,0.4179257309762775,0.4427916148725832,0.4714703100941773,0.5047846889676998,0.5459513040269293,0.6052756642120416,0.7097774468804481,1.4489861432962348,0.9947916666666666,0.5273172061174957,0.0,0.992565445026178,50,1166,5815,772031,no_split,wide,individual,1,0.455615758895874
1,1.0,0.5433653135851175,0.3917696546288215,0.4216337406127909,0.4506562754296825,0.47865627542968253,0.5079922682816335,0.5429532068753545,0.5862698209441126,0.6454486438083289,0.7400484397877554,1.4644189952246653,0.9903157894736843,0.5273172061174957,0.0,0.992565445026178,50,1166,5815,772031,no_split,wide,individual,1,0.455615758895874
0,0.0,0.42144469810498447,0.3520099445714904,0.3660793780501131,0.37892043433270794,0.3927533324173224,0.4061492788686372,0.42234017517825834,0.44199606377343453,0.46759020530087325,0.5092530724966817,0.918042693967349,1.0,0.4312130734878862,0.0,0.9998412698412699,50,1166,6055,772031,no_split,wide,individual,1,0.46160125732421875
1,1.0,0.44108536775783996,0.3609567254751057,0.3796831830640542,0.39409915408276874,0.41007942164377126,0.4268083223509107,0.4441582413988291,0.46697408786064276,0.49592275866771357,0.5399621933682894,0.9780794216437712,0.9996808510638298,0.4312130734878862,0.0,0.9998412698412699,50,1166,6055,772031,no_split,wide,individual,1,0.46160125732421875
0,0.0,0.4765470065030421,0.34516717077155284,0.368006317026891,0.390381447805516,0.4130576222177799,0.44021285712013386,0.4700531603568044,0.5096849967986722,0.5637267805920408,0.6600777278573257,1.3510138584213764,0.9837837837837838,0.4805300306317285,0.0,0.9823056300268097,50,1166,6109,772031,no_split,wide,individual,1,0.46141672134399414
1,1.0,0.4844494958647443,0.35927729945295395,0.3822813677393484,0.4033790785319448,0.42469594480527745,0.4501203578509046,0.4791226443501077,0.5150847023035244,0.5650626463872993,0.6545610503923569,1.3810448680253313,0.9808510638297873,0.4805300306317285,0.0,0.9823056300268097,50,1166,6109,772031,no_split,wide,individual,1,0.46141672134399414
0,0.0,0.39212123438012797,0.3278401421570673,0.340067687416799,0.351728121926966,0.3633110456794241,0.3759099357531712,0.3895785869916973,0.4076159319670265,0.4334298100518305,0.47599382893803927,0.9894120912781457,0.9975916230366492,0.408814760824703,0.0,0.9928459530026109,50,1166,6214,772031,no_split,wide,individual,1,0.4697749614715576
1,1.0,0.4254213418190459,0.3356943479449796,0.35291005188008207,0.368957325019483,0.38504120082047016,0.40392033189388477,0.42457877881041917,0.45084020602020114,0.4870672874717644,0.5452299323198745,1.1832237150823166,0.988125,0.408814760824703,0.0,0.9928459530026109,50,1166,6214,772031,no_split,wide,individual,1,0.4697749614715576
0,0.0,0.4763022258582069,0.3367616284889371,0.3635518390461748,0.38710039251952466,0.41096948582889326,0.4390970561777636,0.4726113748428281,0.5129377172178009,0.5668318290239355,0.6668932070772783,1.4241645885621093,0.9896296296296296,0.4806815380275191,0.0,0.9886772486772487,50,1166,6253,772031,no_split,wide,individual,1,0.4687538146972656
1,1.0,0.4850608501968313,0.35355189102042284,0.378551942994671,0.39996211248040975,0.42266069003656725,0.4481645885621091,0.47945449174448906,0.5170457975573507,0.5738411608858338,0.6625883720550516,1.4339125859434114,0.9877248677248677,0.4806815380275191,0.0,0.9886772486772487,50,1166,6253,772031,no_split,wide,individual,1,0.4687538146972656
0,0.0,0.46351668942948815,0.36720199985166907,0.38627815897312895,0.4026464456127344,0.4207224658931733,0.44030604329663076,0.4624947737741966,0.4897880434782825,0.5277970020249727,0.5923092176866488,1.1716665233821035,0.9978947368421053,0.46841501544136827,0.0,0.9971128608923885,50,1166,6262,772031,no_split,wide,individual,1,0.4763219356536865
1,1.0,0.4732876957673222,0.3726645156051668,0.392576978239988,0.4116429549776138,0.4292685643493435,0.44985296688344034,0.47336046930562464,0.5013140509522017,0.5382601892460284,0.6033895377483257,1.2732999605783686,0.9963350785340314,0.46841501544136827,0.0,0.9971128608923885,50,1166,6262,772031,no_split,wide,individual,1,0.4763219356536865
0,0.0,0.49474919715425736,0.38343823299839713,0.40764821626426095,0.4282552466725556,0.4493554798670956,0.47349293747619436,0.49887289080980796,0.5289642307778335,0.5698029329103697,0.6358087198430281,1.3288459213559791,0.9998947368421053,0.5066453550489942,0.0,0.9998421052631579,50,1166,6361,772031,no_split,wide,individual,1,0.47323131561279297
1,1.0,0.5185415129437311,0.4195976902010793,0.44181399905584245,0.4601010403506396,0.4801144506913532,0.49949293747619433,0.5227023199338934,0.5484766131406039,0.5819355472781863,0.6441711343796673,1.1765045850739966,0.9997894736842106,0.5066453550489942,0.0,0.9998421052631579,50,1166,6361,772031,no_split,wide,individual,1,0.47323131561279297
0,0.0,0.4169512292297262,0.3421311463586838,0.3555893944107107,0.3693572035338541,0.3830026504631162,0.39761003919362675,0.4155738225394612,0.43730235246219823,0.4667867984594331,0.514391251066886,1.043924399090655,0.9982105263157894,0.4208626245914815,0.0,0.9977308707124011,50,1166,6427,772031,no_split,wide,individual,1,0.4888184070587158
1,1.0,0.42479471516679107,0.34804809181191715,0.36365077803693757,0.37757020079454023,0.39205196877500176,0.40655852705222073,0.4243685194259325,0.44638394250962604,0.47542629485147186,0.5252621667099747,0.9003685194259325,0.9972486772486773,0.4208626245914815,0.0,0.9977308707124011,50,1166,6427,772031,no_split,wide,individual,1,0.4888184070587158
0,0.0,0.46824921363095895,0.37670123730522165,0.39370009696465214,0.4097235422173571,0.42647387172256856,0.44400346518858,0.46542593100970875,0.4925946116407131,0.5289723661394663,0.5884389508610048,1.282916160822161,0.9937234042553191,0.47185650497847664,0.0,0.9928,50,1166,6583,772031,no_split,wide,individual,1,0.4807300567626953
1,1.0,0.475483086654056,0.3812144026524696,0.39871083428817555,0.4156819044685411,0.4325824454819823,0.4500244331774757,0.47187068318905345,0.4992397095007245,0.5380676056675006,0.6028330519565749,1.2927108342881757,0.9918716577540106,0.47185650497847664,0.0,0.9928,50,1166,6583,772031,no_split,wide,individual,1,0.4807300567626953
0,0.0,0.44675002199448866,0.3496382821541308,0.3666797608120985,0.3834038548517913,0.4004244026097592,0.4188317068763085,0.44174898827334524,0.4682614735443879,0.506688594541553,0.5757133091749882,1.286443934726502,0.9926984126984127,0.4628587524361603,0.0,0.987860962566845,50,1166,6634,772031,no_split,wide,individual,1,0.46734166145324707
1,1.0,0.4793157797522464,0.3543952661329252,0.377682019493051,0.3999462740995542,0.4223832804019682,0.44840735523837216,0.4784717822911967,0.5156746261462349,0.5638397835326938,0.6466425189091017,1.4480261368046363,0.9829189189189189,0.4628587524361603,0.0,0.987860962566845,50,1166,6634,772031,no_split,wide,individual,1,0.46734166145324707
0,0.0,0.46174101594287853,0.37053903715124586,0.3869609419815124,0.4026673074524167,0.41922347592979475,0.437187791821046,0.45920228299769184,0.48457980599149814,0.522388949224953,0.5862848683743408,1.177542156135346,0.9979166666666667,0.46959441645419264,0.0,0.9968146214099217,50,1166,6844,772031,no_split,wide,individual,1,0.4706897735595703
1,1.0,0.4774889342456709,0.3824341077825201,0.4033972546888931,0.42119250983458917,0.4385710041676476,0.45773259500093766,0.47846443174117465,0.5028781360543985,0.5368649229976504,0.5968095270976058,1.308399331054878,0.9957068062827226,0.46959441645419264,0.0,0.9968146214099217,50,1166,6844,772031,no_split,wide,individual,1,0.4706897735595703
0,0.0,0.4474121800955858,0.3367620022209632,0.3572381037743797,0.3759847286481678,0.3943654411162075,0.4142840582074998,0.4382085906431532,0.46962170464839953,0.513215311924968,0.5968869572270643,1.4219116841434711,0.9987368421052631,0.4798455479655225,0.0,0.9958115183246073,50,1166,7624,772031,no_split,wide,individual,1,0.4707057476043701
1,1.0,0.5119410682534806,0.3591938032197373,0.3928866112581317,0.42244623244683605,0.4519057108528404,0.4867389455977078,0.5209162668699004,0.5625009038857618,0.6138900709474578,0.6964750934309794,1.339911684143471,0.9929166666666667,0.4798455479655225,0.0,0.9958115183246073,50,1166,7624,772031,no_split,wide,individual,1,0.4707057476043701
0,0.0,0.4151039352128013,0.32418859823482044,0.34002734165952914,0.3551750467667546,0.3709379667794349,0.38904290375082967,0.4095110590513145,0.4368347291673696,0.4725076863985786,0.5392639044391103,1.1095877711390985,0.9914583333333333,0.4262547183716146,0.0,0.99,50,1166,7756,772031,no_split,wide,individual,1,0.4734315872192383
1,1.0,0.4375228781952575,0.33010404431134466,0.3504630343464683,0.3695456283773761,0.3884599239551558,0.41070034261239047,0.4359778314769959,0.46819504102116366,0.5099896516978086,0.581047627278311,1.2941693723297685,0.9885263157894737,0.4262547183716146,0.0,0.99,50,1166,7756,772031,no_split,wide,individual,1,0.4734315872192383
0,0.0,0.42638196688879737,0.3189072410664409,0.3371176884274762,0.35415010981410955,0.37194398480527385,0.39172701094210344,0.4167147365784112,0.4490541165547157,0.49453846491693043,0.577137648182741,1.3896571938336142,0.9880851063829788,0.44117990283084296,0.0,0.9819302949061662,50,1166,7768,772031,no_split,wide,individual,1,0.4720184803009033
1,1.0,0.4562178053016783,0.33115541852901076,0.35616630194522403,0.3785437535556103,0.40128414774640725,0.42581010108269,0.45551101987818193,0.49100392534823895,0.5370577834130709,0.6168606702884666,1.447375086356705,0.9756756756756757,0.44117990283084296,0.0,0.9819302949061662,50,1166,7768,772031,no_split,wide,individual,1,0.4720184803009033
0,0.0,0.41927557011697497,0.3035794613166619,0.32169900095116516,0.3394631127205168,0.3595651399744114,0.3825021012913855,0.4114846707361439,0.44605143451261786,0.49367932752714994,0.5820330702157662,1.3717768952893405,0.9774869109947644,0.4273177690698546,0.0,0.9723560209424084,50,1166,7807,772031,no_split,wide,individual,1,0.4687333106994629
1,1.0,0.4353599680227341,0.3176684131568595,0.3394050391166651,0.35812043896921947,0.3792206214875445,0.40370345119692386,0.43130164898882534,0.46654007643704876,0.5137157803836877,0.5947245354311792,1.4127936833501589,0.9672251308900524,0.4273177690698546,0.0,0.9723560209424084,50,1166,7807,772031,no_split,wide,individual,1,0.4687333106994629
0,0.0,0.40530549090904266,0.3229544766887623,0.3371736715928628,0.3507661773865028,0.3649295868070567,0.3806499456654379,0.40054881846491286,0.42512261333582196,0.4595606662227299,0.5173334823424465,1.187253595846259,0.9847916666666666,0.4119724725363393,0.0,0.98,50,1166,7813,772031,no_split,wide,individual,1,0.4733273983001709
1,1.0,0.41874527926883104,0.3304516954532765,0.3465168898361455,0.36193838010716833,0.377481671138987,0.3945268891777541,0.4151295523991354,0.4421289380485576,0.4778692574857362,0.5410084596411413,1.1151270949968244,0.9751322751322752,0.4119724725363393,0.0,0.98,50,1166,7813,772031,no_split,wide,individual,1,0.4733273983001709
0,0.0,0.4163308168470689,0.34481495450053284,0.36058412539718887,0.37454660990202915,0.38848109169426825,0.40303012559311235,0.4188484744116626,0.4380495007292065,0.463022472841979,0.5056780590074291,0.8866701133252723,0.9994764397905759,0.4226229110879066,0.0,0.9995811518324608,50,1166,7828,772031,no_split,wide,individual,1,0.4710991382598877
1,1.0,0.4289150053287443,0.3477415477878039,0.3651055098015074,0.38081741784637674,0.3962469716254579,0.41161876369557604,0.4307467201506673,0.4540208741932877,0.48264808896491407,0.5320216735176334,1.050618763695576,0.9996858638743455,0.4226229110879066,0.0,0.9995811518324608,50,1166,7828,772031,no_split,wide,individual,1,0.4710991382598877
0,0.0,0.5640079249551455,0.40809376003869885,0.4354608564837894,0.46011104421298477,0.4855054968453198,0.5158694715353755,0.5523457379153217,0.6000869443171934,0.6693281360769255,0.7810946988008036,1.4971056131254825,0.9802116402116402,0.5728211595042844,0.0,0.9773936170212766,50,1166,7840,772031,no_split,wide,individual,1,0.46689319610595703
1,1.0,0.5817286532464621,0.41603471434742556,0.4472745202466959,0.4760711032470808,0.5054672106257746,0.540085325344575,0.5804967887047076,0.627603848083611,0.6928207708454661,0.8013612799462609,1.5146564997078085,0.9745454545454545,0.5728211595042844,0.0,0.9773936170212766,50,1166,7840,772031,no_split,wide,individual,1,0.46689319610595703
0,0.0,0.46206519817868597,0.3732285544104085,0.3940725694858225,0.41171875666817614,0.43014819516549585,0.4472617188748142,0.46703733546179405,0.4905107941310907,0.5215011593022314,0.5708769790419036,0.9256046442029335,1.0,0.4686496484404661,0.0,1.0,50,1166,7924,772031,no_split,wide,individual,1,0.4783756732940674
1,1.0,0.47523409870224614,0.3897824964722783,0.41118900489176324,0.42904046154486836,0.4456003034785549,0.4624682941291993,0.48101279619128956,0.5027752791085679,0.5307458320038637,0.5779582085828157,0.932367795816835,1.0,0.4686496484404661,0.0,1.0,50,1166,7924,772031,no_split,wide,individual,1,0.4783756732940674
0,0.0,0.4537823045417327,0.36461531013222853,0.3850095017023729,0.40220873803205576,0.418786361895509,0.437577050234595,0.45802160364570677,0.48171401541465375,0.5111977628926353,0.5620264231218461,1.116421561089747,1.0,0.4665690374512242,0.0,1.0,50,1166,7939,772031,no_split,wide,individual,1,0.47643232345581055
1,1.0,0.47942378489746834,0.37799938621041634,0.40180903416163993,0.42116879011664066,0.44137127920028707,0.46229406321897215,0.4856849612845615,0.5117357193589103,0.5475527105407015,0.6025496680789647,1.101801124321009,1.0,0.4665690374512242,0.0,1.0,50,1166,7939,772031,no_split,wide,individual,1,0.47643232345581055
0,0.0,0.46164777216303476,0.33793567602881813,0.3599385390352193,0.37843567557775476,0.39768499440525823,0.4213825225572924,0.44937401991015546,0.4879651604555272,0.5403752306617067,0.6390844686085209,1.4270317612457912,0.9801123595505618,0.4781788638769048,0.0,0.9703581267217631,50,1166,8026,772031,no_split,wide,individual,1,0.4742591381072998
1,1.0,0.494084454823223,0.3508397363128486,0.3775814838085764,0.40337321274245463,0.4284680840980127,0.4586389644209502,0.49018563676481525,0.5330870230566915,0.5886389644209502,0.6842356008944479,1.4232426283518875,0.960972972972973,0.4781788638769048,0.0,0.9703581267217631,50,1166,8026,772031,no_split,wide,individual,1,0.4742591381072998
0,0.0,0.4847540046942592,0.3717223928626883,0.3913894036699902,0.41021416372351116,0.4304515856773186,0.45418717898266703,0.4806120873011062,0.5125561417504846,0.560317993746734,0.6423956660849796,1.4552318178579617,0.9883157894736843,0.4880295836416277,0.0,0.988,50,1166,808,772031,no_split,wide,individual,1,0.46986961364746094
1,1.0,0.49130516258899615,0.37965508793523334,0.40002974448465434,0.419390923954736,0.43891543653015425,0.4596734640367677,0.48488827330262413,0.5187731416752319,0.5642309538159351,0.6443717525902465,1.361689743362218,0.9876842105263158,0.4880295836416277,0.0,0.988,50,1166,808,772031,no_split,wide,individual,1,0.46986961364746094
0,0.0,0.46143856497086766,0.333220807611145,0.35418151662641006,0.3752052891033995,0.3974031994149242,0.4219704727104441,0.45157953516885907,0.49107409502613997,0.54318151662641,0.6395943957089315,1.4632749708715862,0.9652356020942409,0.46644030844003503,0.0,0.9594778067885118,50,1166,8311,772031,no_split,wide,individual,1,0.4702119827270508
1,1.0,0.471416001161967,0.33602079192696044,0.35804785342201395,0.38067513082147536,0.405229548295922,0.43142339093870163,0.4641455329425157,0.504916165721533,0.5617978662988452,0.661690835184204,1.4631264075162558,0.95375,0.46644030844003503,0.0,0.9594778067885118,50,1166,8311,772031,no_split,wide,individual,1,0.4702119827270508
0,0.0,0.46332472769258637,0.37086359842769373,0.3871308527580853,0.4023035466230921,0.41906131633512445,0.43677706272359784,0.45824452826925444,0.4848955309898572,0.5220247905779163,0.5912478996796718,1.296796438695296,0.9864583333333333,0.4733081321238033,0.0,0.9836507936507937,50,1166,833,772031,no_split,wide,individual,1,0.46675968170166016
1,1.0,0.48361358185925307,0.37778744205751996,0.39752187884017665,0.4155432307991306,0.43396772432774305,0.4558059178256798,0.4817176976513952,0.511049564959906,0.5523332987485371,0.6262551887352743,1.2249918047402621,0.980752688172043,0.4733081321238033,0.0,0.9836507936507937,50,1166,833,772031,no_split,wide,individual,1,0.46675968170166016
0,0.0,0.5858472191914378,0.3687035721878462,0.403326991048328,0.43667386553315013,0.4761935247509341,0.5205196633086906,0.5774449162118579,0.6476240476032902,0.7447287643326921,0.8996135771315329,1.4656566747437336,0.9660869565217391,0.598978193339499,0.0,0.9562702702702702,50,1166,837,772031,no_split,wide,individual,1,0.4612407684326172
1,1.0,0.6119679742171508,0.3946020893530997,0.4383277397591928,0.4765522550662487,0.5160817425559471,0.5576333696434168,0.6100051138342176,0.6746723072251044,0.7604286437592928,0.904041814884045,1.463329840898825,0.9465591397849462,0.598978193339499,0.0,0.9562702702702702,50,1166,837,772031,no_split,wide,individual,1,0.4612407684326172
0,0.0,0.3953953798696063,0.3175424347865951,0.3324129256850393,0.346046520409996,0.3604577786377565,0.37577827343065245,0.39263256323146273,0.4144980812099033,0.4456672224923381,0.4988581940427069,1.1119310639795168,0.9971727748691099,0.4038803569982919,0.0,0.9960526315789474,50,1166,8446,772031,no_split,wide,individual,1,0.45639610290527344
1,1.0,0.41245512224474135,0.3245554525017286,0.34248015100244156,0.3584105522278403,0.37441093309182355,0.39170128498482226,0.41227391363603094,0.43687538316667285,0.4713834066001772,0.5266873711053668,1.032542434786595,0.9949206349206349,0.4038803569982919,0.0,0.9960526315789474,50,1166,8446,772031,no_split,wide,individual,1,0.45639610290527344
0,0.0,0.42667503505675053,0.3408225565995937,0.35682379566480743,0.37109431883374755,0.38720387879937995,0.40387574393928016,0.4233087778596091,0.4477918574720772,0.48206216684554626,0.5422807814940243,1.1932769187764682,0.988042328042328,0.4400267504119233,0.0,0.981968085106383,50,1166,845,772031,no_split,wide,individual,1,0.45179200172424316
1,1.0,0.4535212648618039,0.3439246777191725,0.3625179133149689,0.38104388416817836,0.4007947597085884,0.4223690110029514,0.4494321026820638,0.4839009286784998,0.5307908900599069,0.6052942099199139,1.2770073703676417,0.9758288770053476,0.4400267504119233,0.0,0.981968085106383,50,1166,845,772031,no_split,wide,individual,1,0.45179200172424316
0,0.0,0.5012878194533948,0.3779536541029686,0.4006562482247353,0.4218463751510897,0.44295644002001994,0.46727077422864594,0.4959571154577454,0.5334316758677796,0.5806084579605362,0.6676642957046286,1.330083849264117,0.9908900523560209,0.5084537392660154,0.0,0.9901052631578947,50,1166,8521,772031,no_split,wide,individual,1,0.4574108123779297
1,1.0,0.5156954889179229,0.3840399008303488,0.409668942017997,0.43297133912820435,0.4573186263205849,0.484069907499888,0.5130703629546922,0.5491159504329544,0.6008390715294156,0.6907441124201126,1.4816857120974913,0.9893121693121694,0.5084537392660154,0.0,0.9901052631578947,50,1166,8521,772031,no_split,wide,individual,1,0.4574108123779297
0,0.0,0.5751969440262,0.423522586804944,0.45439559467433377,0.48292186609098703,0.5093969015569889,0.5404051453718466,0.5743838806825916,0.6180634652361824,0.6752563376724199,0.7740362137418151,1.5017969657356145,0.9976086956521739,0.5754090244376072,0.0,0.9974193548387097,50,1166,8704,772031,no_split,wide,individual,1,0.4472222328186035
1,1.0,0.5756165924998355,0.42880671504992884,0.45746923514985194,0.48428809241115817,0.5113021763853438,0.5405393443582547,0.5750658427028461,0.6190652987619871,0.6748993097585125,0.7673488822977378,1.4830225879946313,0.9972340425531915,0.5754090244376072,0.0,0.9974193548387097,50,1166,8704,772031,no_split,wide,individual,1,0.4472222328186035
0,0.0,0.4454464789916721,0.34779077387460783,0.3709204919411634,0.39090193547585245,0.41039749906638173,0.43131711028513653,0.45287936373286225,0.4787927674060163,0.5108510455258536,0.5607587877474032,1.0079314069626433,1.0,0.45376346469744927,0.0,1.0,50,1166,8755,772031,no_split,wide,individual,1,0.445542573928833
1,1.0,0.462218300995035,0.3695198119783553,0.392903130337336,0.4121745331755096,0.4307974189793027,0.4477326854043471,0.46714514989787326,0.4909328243650798,0.5245775434395877,0.5728112201882173,1.0695179905485825,1.0,0.45376346469744927,0.0,1.0,50,1166,8755,772031,no_split,wide,individual,1,0.445542573928833
0,0.0,0.46285923883646923,0.35511681693618063,0.37270497692797006,0.3910826657676185,0.40954131587866827,0.4315374423694278,0.45683685489890796,0.4889917446742474,0.5338489206985583,0.6096229163395543,1.4803386497926034,0.9865625,0.46748210341980256,0.0,0.9841666666666666,50,1166,8785,772031,no_split,wide,individual,1,0.44858551025390625
1,1.0,0.47210496800313595,0.35884864289104756,0.37895662738649644,0.39858534957901876,0.41838988058395743,0.4414741869400759,0.4675036310102795,0.501117369949379,0.5481336883446679,0.6245890323223902,1.3781302417308317,0.9817708333333334,0.46748210341980256,0.0,0.9841666666666666,50,1166,8785,772031,no_split,wide,individual,1,0.44858551025390625
0,0.0,0.4204058267206038,0.31710803794544656,0.3363551406721,0.35410552763322045,0.3732396155170009,0.39351767462220266,0.416828139713625,0.4446084066209122,0.4837819444517241,0.5557219984137637,1.390683024448264,0.995978835978836,0.43733771365869767,0.0,0.9926259946949603,50,1166,8788,772031,no_split,wide,individual,1,0.451371431350708
1,1.0,0.4543596638251856,0.3256809617880468,0.3510012646057379,0.3726329409722481,0.3961983760825719,0.4225585120888318,0.4538161948111483,0.4906084066209122,0.5433022470242349,0.6255844193835906,1.4180153681975043,0.9892553191489362,0.43733771365869767,0.0,0.9926259946949603,50,1166,8788,772031,no_split,wide,individual,1,0.451371431350708
0,0.0,0.4730624953438159,0.3629076396514136,0.3826711189749086,0.40098583621918876,0.4198148492446061,0.44004184999649243,0.46505098302489795,0.4975535863634159,0.5421205390192706,0.6229076396514135,1.478406617736715,0.9830687830687831,0.49450100119769413,0.0,0.9731914893617021,50,1166,916,772031,no_split,wide,individual,1,0.4503138065338135
1,1.0,0.5161687958842341,0.3706553851100931,0.3961335087094121,0.4216854384400683,0.44861383604114363,0.4785771005314692,0.5155634636486206,0.5604212311680704,0.6202898650905015,0.7141118493103406,1.4751010650514493,0.9632085561497327,0.49450100119769413,0.0,0.9731914893617021,50,1166,916,772031,no_split,wide,individual,1,0.4503138065338135
0,0.0,0.42005462829402196,0.32731584070245995,0.3426650234313884,0.35766502343138834,0.37342943546960355,0.39112095080055964,0.41226311170190966,0.44052337538756287,0.47910347565325867,0.5484577918722551,1.1838584167953,0.9858947368421053,0.4292169233624015,0.0,0.9780577427821522,50,1166,985,772031,no_split,wide,individual,1,0.4536433219909668
1,1.0,0.43833124829953307,0.3347300883648562,0.35466502343138834,0.3728924883538093,0.39130743607614643,0.41241477235790824,0.4361019818652933,0.4660070212837939,0.5088584167952999,0.577334486477358,1.1576650234313883,0.9702617801047121,0.4292169233624015,0.0,0.9780577427821522,50,1166,985,772031,no_split,wide,individual,1,0.4536433219909668
0,0.0,0.4463751423627359,0.3513472850819455,0.3681639262885707,0.3841615554508749,0.4011790877101044,0.4190215790602627,0.43939897607942346,0.4671433196544232,0.5062470416614447,0.5749897644729066,1.2187229211199202,0.9964878048780488,0.4710024996369117,0.0,0.9913065326633166,50,1166,275,772031,no_split,narrow,individual,1,0.458568811416626
1,1.0,0.497161091560259,0.36796566915861795,0.3951398246817174,0.4191137510482301,0.44343863968888003,0.4710759778426925,0.5003093413046515,0.5360109638641601,0.5834377520692083,0.6635040090906994,1.2008691145263473,0.9858031088082901,0.4710024996369117,0.0,0.9913065326633166,50,1166,275,772031,no_split,narrow,individual,1,0.458568811416626
0,0.0,0.47811521722707145,0.3750098206951212,0.3922578697238139,0.4092998988755399,0.42682345292868135,0.44864361145723064,0.47291483721257144,0.503874588663401,0.5474062400035068,0.6233408382704257,1.4450135081656694,0.9916190476190476,0.48618444955030377,0.0,0.99,50,1166,808,772031,no_split,narrow,individual,1,0.45611023902893066
1,1.0,0.4952948731410499,0.3872181109423573,0.40922611296231015,0.4278260656487162,0.44860766829642784,0.4701421739760471,0.4934047029893009,0.5246060989280804,0.5645906359529843,0.6342998548739042,1.3433328882937696,0.9881720430107527,0.48618444955030377,0.0,0.99,50,1166,808,772031,no_split,narrow,individual,1,0.45611023902893066
0,0.0,0.4719040355068348,0.35656280582914784,0.37640171852000265,0.3943395829064612,0.4140293362394443,0.4368219025260197,0.46318514330888527,0.49786969518615865,0.5502413849865656,0.6335780537475113,1.430068942533615,0.994,0.48559584884016815,0.0,0.9914666666666667,50,1166,833,772031,no_split,narrow,individual,1,0.45772814750671387
1,1.0,0.5012436355068347,0.3844439551632693,0.4073923312141519,0.42858887841735954,0.4503393448219467,0.47334739825042416,0.49983476295006435,0.5318135325369479,0.5774439551632693,0.6568393053801967,1.2427443881864724,0.9885714285714285,0.48559584884016815,0.0,0.9914666666666667,50,1166,833,772031,no_split,narrow,individual,1,0.45772814750671387
0,0.0,0.6003975187556256,0.3627390276473436,0.4033651599777955,0.4407861004417581,0.4816213993406558,0.5311801366732674,0.5914438271125216,0.6710999427686819,0.7756231768378419,0.953868781535219,1.447117844743601,0.9562303664921465,0.6180120932237108,0.0,0.9453191489361702,50,1166,837,772031,no_split,narrow,individual,1,0.4605581760406494
1,1.0,0.6361979511880581,0.3898594402918036,0.43920484853324204,0.484619117955696,0.5282217947764677,0.5791501311414896,0.6370411005360472,0.710549153545181,0.8111535496608809,0.9722293646721132,1.4613079190742695,0.9340540540540541,0.6180120932237108,0.0,0.9453191489361702,50,1166,837,772031,no_split,narrow,individual,1,0.4605581760406494
0,0.0,0.4338763794305249,0.3427142049978554,0.35887798775200336,0.373785069175442,0.3886598083452738,0.4059036526873969,0.42480818620546135,0.4524230411099155,0.49068496515916005,0.5592781497062723,1.2508779877520033,0.9861458333333334,0.44708270463105976,0.0,0.9762032085561497,50,1166,845,772031,no_split,narrow,individual,1,0.4617021083831787
1,1.0,0.4610146520953601,0.34839272869869203,0.3688959188432061,0.3887115184129946,0.4108081862054614,0.43449551298635875,0.4615820914631059,0.494389082258013,0.5407325858265668,0.6092404391419038,1.462392728698692,0.9657142857142857,0.44708270463105976,0.0,0.9762032085561497,50,1166,845,772031,no_split,narrow,individual,1,0.4617021083831787
0,0.0,0.47391785713854795,0.35851244614399164,0.37694118224563916,0.3953532170234266,0.4147526157425816,0.4377556196571177,0.46294909563133696,0.496085165447169,0.5455495396236189,0.636331121285405,1.4829557316339408,0.9916201117318436,0.5001954472719545,0.0,0.9832786885245902,50,1166,916,772031,no_split,narrow,individual,1,0.46388673782348633
1,1.0,0.5253488624263919,0.38184560906265835,0.4121880318472058,0.43908567883112,0.46606354890692026,0.49516500478119435,0.5283083726856711,0.567761932733725,0.6193370860573486,0.7088705203654927,1.4536854696000288,0.9752941176470589,0.5001954472719545,0.0,0.9832786885245902,50,1166,916,772031,no_split,narrow,individual,1,0.46388673782348633
0,0.0,0.4159386813460776,0.33192904718160865,0.3465737705468274,0.3593321694801926,0.3730844621778589,0.3883648335961347,0.40657964401813823,0.4304414813805299,0.4661674546783739,0.528486286657287,1.4366501178222304,0.9882485875706215,0.4428035566388983,0.0,0.9724661246612466,50,1166,985,772031,no_split,narrow,individual,1,0.46902012825012207
1,1.0,0.4675696135494674,0.3425812148954533,0.3659035051971684,0.38970363765187616,0.4134245796540005,0.441775774830623,0.47268899385560403,0.5080127366246234,0.5561510520542009,0.6266032860631853,1.245947588846476,0.9579166666666666,0.4428035566388983,0.0,0.9724661246612466,50,1166,985,772031,no_split,narrow,individual,1,0.46902012825012207
0,0.0,0.4076404615107689,0.3255330977610532,0.3389227693548407,0.35193198594002933,0.36470371037767774,0.3792154938865576,0.3965929916682824,0.41944399199491367,0.45333552487128526,0.5213327596538615,1.2310789707438012,0.9898863636363636,0.4458209818456972,0.0,0.9664736842105263,50,1166,1108,772031,no_split,narrow,individual,1,0.4724433422088623
1,1.0,0.4787610386052431,0.34842517294258446,0.37658206984296594,0.40277238825865874,0.42899126887516187,0.45641231058952325,0.48589763013577,0.5201386610346458,0.565328134475324,0.6349241716673049,1.2463049200345533,0.9462745098039216,0.4458209818456972,0.0,0.9664736842105263,50,1166,1108,772031,no_split,narrow,individual,1,0.4724433422088623
0,0.0,0.44609434364045886,0.3316706866573467,0.34926524743190884,0.36718064800161826,0.38503591579716895,0.4062486558353119,0.4322718806610521,0.4678249232688161,0.5159760932315369,0.6151797300246074,1.3648043724276526,0.982713567839196,0.47106174798404404,0.0,0.9651105651105651,50,1166,1507,772031,no_split,narrow,individual,1,0.4703085422515869
1,1.0,0.4949488319473781,0.35491919592949217,0.3829556545965169,0.4092880910832256,0.434840349162036,0.46304441303295646,0.4936731339483572,0.5350177781906524,0.5870282996382569,0.6755211499989446,1.4322717838913872,0.9482692307692308,0.47106174798404404,0.0,0.9651105651105651,50,1166,1507,772031,no_split,narrow,individual,1,0.4703085422515869
0,0.0,0.4651494970071616,0.35374561691359074,0.37458489045241594,0.39316063498993226,0.4143051761649466,0.4362276805675216,0.4620021672825472,0.49564035301501763,0.5370572402641726,0.6077844729150917,1.3872261004886097,0.9938709677419355,0.47661000930801184,0.0,0.9901047120418848,50,1166,1538,772031,no_split,narrow,individual,1,0.4741635322570801
1,1.0,0.48748580159351235,0.3656751391501395,0.389248767114071,0.40960083815199966,0.4315027225737943,0.45620914786987915,0.4855656633823767,0.5214795772694093,0.5699142307046435,0.6506274525708707,1.328722137949208,0.9865306122448979,0.47661000930801184,0.0,0.9901047120418848,50,1166,1538,772031,no_split,narrow,individual,1,0.4741635322570801
0,0.0,0.4678093325607918,0.3680998784039697,0.3846827105554579,0.39961077796553385,0.41621592485668635,0.4342109349829538,0.456295121528997,0.48468085747606954,0.5287813787325697,0.6105263798697909,1.4609438043554737,0.9965957446808511,0.500872694379185,0.0,0.9892349726775956,50,1166,1582,772031,no_split,narrow,individual,1,0.4710094928741455
1,1.0,0.5357935484345666,0.4047838973961918,0.4354065994539385,0.4617932628583391,0.4875594366334872,0.5128669859156763,0.5411040922072274,0.5743585109746556,0.6217348959996897,0.6966087253475688,1.4146801771952442,0.9814606741573034,0.500872694379185,0.0,0.9892349726775956,50,1166,1582,772031,no_split,narrow,individual,1,0.4710094928741455
0,0.0,0.4476287840379888,0.34700718649430645,0.36045280339100977,0.37376303711558273,0.3887745471076627,0.4064292902271146,0.4277339430674195,0.45747715082945806,0.5062635284398441,0.601341675501443,1.48141319918739,0.9903517587939699,0.4855129333560074,0.0,0.9637092731829574,50,1166,1583,772031,no_split,narrow,individual,1,0.46995973587036133
1,1.0,0.523207661927436,0.391011883262147,0.42182517471834924,0.44800466047698423,0.47424714786778344,0.4997864616401714,0.5288283248402351,0.561883458677162,0.6067958274070021,0.6810560273885301,1.429754304336895,0.9372,0.4855129333560074,0.0,0.9637092731829574,50,1166,1583,772031,no_split,narrow,individual,1,0.46995973587036133
0,0.0,0.5669202476205764,0.40154095885842195,0.42694135053752674,0.4513323417162848,0.4792248409386396,0.5117036940936721,0.5510307337278993,0.603092649641734,0.6790864966898846,0.816258010085874,1.4959759359829763,0.9771584699453552,0.5851806130202041,0.0,0.9670879120879121,50,1166,1597,772031,no_split,narrow,individual,1,0.47286319732666016
1,1.0,0.6036427504131978,0.4257685800082706,0.4589393634418318,0.4918574693657502,0.5254091243924449,0.5609826762838136,0.6028477376513028,0.6499359001232353,0.7244360711682294,0.8361993421557399,1.5148415161933457,0.9569060773480663,0.5851806130202041,0.0,0.9670879120879121,50,1166,1597,772031,no_split,narrow,individual,1,0.47286319732666016
0,0.0,0.4136287139808247,0.328627922376318,0.3437388551339419,0.3574185113763415,0.37174637352731393,0.3875350615242831,0.405198147156011,0.42824214863021426,0.46327913924844366,0.5255878831083445,1.2465668365609859,0.9959562841530054,0.4494953045819175,0.0,0.9834133333333334,50,1166,1601,772031,no_split,narrow,individual,1,0.47583866119384766
1,1.0,0.4836806487485843,0.3422511529472851,0.3697443877480377,0.3968589869237618,0.4257388551339419,0.4565885457860718,0.4945371286183598,0.5335339000020081,0.5835891626104782,0.6586039012708358,1.421216627287719,0.9714583333333333,0.4494953045819175,0.0,0.9834133333333334,50,1166,1601,772031,no_split,narrow,individual,1,0.47583866119384766
0,0.0,0.5051798792650569,0.3612807234824947,0.3834071481915806,0.4044871023177123,0.42851553154243993,0.4559576525073334,0.4891359231324833,0.5361261380114462,0.6013041068245196,0.7159628059254223,1.4771873253591288,0.9928712871287129,0.5290981891766934,0.0,0.9879032258064516,50,1166,1614,772031,no_split,narrow,individual,1,0.47331929206848145
1,1.0,0.5575187691893435,0.3984069824445387,0.4302727895410235,0.46171095627861397,0.4914587196476007,0.5235437873566907,0.5594174531715792,0.6046903904621383,0.6622907789585423,0.7647257539957766,1.4805711487322788,0.982,0.5290981891766934,0.0,0.9879032258064516,50,1166,1614,772031,no_split,narrow,individual,1,0.47331929206848145
0,0.0,0.48335810216268316,0.3564607777452584,0.3813593447238973,0.40392927006331086,0.42562780915843923,0.450012295063642,0.47921802571871275,0.5140481704019518,0.5646704601246094,0.6506541483114141,1.379975471266219,0.9990055248618784,0.5158471914328197,0.0,0.9985263157894737,50,1166,1638,772031,no_split,narrow,individual,1,0.4901313781738281
1,1.0,0.5453975691106828,0.39110548362527026,0.4246530027051697,0.4562416111028945,0.48672058508211535,0.5183425924685388,0.5523264012280372,0.5950891673021468,0.6499258737810037,0.7367852758249165,1.4180929756996203,0.9980904522613065,0.5158471914328197,0.0,0.9985263157894737,50,1166,1638,772031,no_split,narrow,individual,1,0.4901313781738281
0,0.0,0.40152222485410716,0.3189122114917044,0.33229222557101096,0.34540169740285176,0.3599120024481105,0.3749983973846944,0.39234036600615624,0.4161193804363367,0.44899839738469444,0.5135459977516111,1.3441141364055762,0.9874489795918368,0.4280200627439801,0.0,0.9726684636118599,50,1166,1657,772031,no_split,narrow,individual,1,0.4868638515472412
1,1.0,0.4576976411806377,0.32978711572314295,0.355296011358226,0.3795193104580326,0.4052884397837959,0.4342529443896622,0.4643278723076492,0.5006344925557569,0.5462624142690494,0.6178889824772847,1.2123615104831151,0.9561142857142857,0.4280200627439801,0.0,0.9726684636118599,50,1166,1657,772031,no_split,narrow,individual,1,0.4868638515472412
0,0.0,0.4650569690428988,0.36638332766813025,0.3827632618750811,0.398326890239595,0.4148489228727551,0.4348172451036547,0.4565307223914029,0.4863516309497616,0.529231642495031,0.6059611979795654,1.3152284886063348,0.9963076923076923,0.4884986191795642,0.0,0.9920304568527919,50,1166,1663,772031,no_split,narrow,individual,1,0.480224609375
1,1.0,0.5114690803687588,0.40092543699815836,0.4254803935013151,0.4468175207712143,0.4668588814435662,0.4889659748160991,0.5133809457378554,0.543552683448594,0.583796437522026,0.6493729270638057,1.2830956949162282,0.9878391959798994,0.4884986191795642,0.0,0.9920304568527919,50,1166,1663,772031,no_split,narrow,individual,1,0.480224609375
0,0.0,0.5087983535072641,0.37443404816251724,0.39780170511134083,0.42105450599577443,0.4433731677260004,0.4697306184555355,0.49992678744275176,0.5409765321647323,0.5990162901796339,0.7012786197132566,1.3882735497473937,0.9935911602209945,0.5261717236730099,0.0,0.9914917127071823,50,1166,1761,772031,no_split,narrow,individual,1,0.4786093235015869
1,1.0,0.5435450938387559,0.39943513395873553,0.4286084350164001,0.4567605546216071,0.48387687363454535,0.5127306184555355,0.5467303050567306,0.5844668542686411,0.6364746532245988,0.7269701476578306,1.4868058453468789,0.9893922651933702,0.5261717236730099,0.0,0.9914917127071823,50,1166,1761,772031,no_split,narrow,individual,1,0.4786093235015869
0,0.0,0.4601140543027273,0.34232075358816866,0.3625354121069956,0.3812296918971029,0.39991670620728503,0.4214373422497707,0.4474563385212098,0.48157787242518785,0.5313367022576649,0.6219773688028003,1.4696594121796782,0.9864130434782609,0.4882840748667696,0.0,0.9696756756756757,50,1166,1768,772031,no_split,narrow,individual,1,0.48840928077697754
1,1.0,0.5161511919838867,0.35546333683135145,0.38366222685064694,0.4138373278820047,0.4457831894034932,0.48032561996108425,0.5198209363675337,0.5685017871894653,0.627346144975748,0.7242059906286649,1.4279997287103503,0.9531182795698925,0.4882840748667696,0.0,0.9696756756756757,50,1166,1768,772031,no_split,narrow,individual,1,0.48840928077697754
0,0.0,0.3777497359276151,0.29496377229918896,0.30960879537007346,0.3224427257233418,0.3363273327860529,0.3509330100851968,0.3695117295096628,0.3932579544149792,0.4264616903001115,0.49195087815770966,1.207555000683772,0.9870391061452514,0.4076373226392932,0.0,0.9582352941176471,50,1166,1813,772031,no_split,narrow,individual,1,0.48734498023986816
1,1.0,0.43507259454385916,0.30543668125264845,0.32943402839785113,0.35325402722169136,0.38056913517011237,0.4083131071606144,0.440805897880388,0.4790599914672084,0.5265401458002293,0.6020307029206117,1.2632394888904606,0.9317948717948717,0.4076373226392932,0.0,0.9582352941176471,50,1166,1813,772031,no_split,narrow,individual,1,0.48734498023986816
0,0.0,0.4043216236808918,0.3103609641190907,0.32609107278088373,0.33986535289947567,0.35497486372200326,0.37126738216855837,0.39337637587639074,0.4195002605075977,0.4604121505166912,0.5414153996318392,1.4140676855238485,0.9914146341463415,0.4303187461150864,0.0,0.9791584158415841,50,1166,1821,772031,no_split,narrow,individual,1,0.477463960647583
1,1.0,0.457099701386493,0.33386988244484683,0.36023827785261153,0.38184379687559955,0.40588236459844856,0.43140283989094974,0.4602308126821205,0.4925166102687299,0.5400135998557462,0.6118134689442518,1.2611201426445606,0.9665326633165829,0.4303187461150864,0.0,0.9791584158415841,50,1166,1821,772031,no_split,narrow,individual,1,0.477463960647583
0,0.0,0.40320356900552495,0.31486783569884,0.3297129037007128,0.34391296410747674,0.3584682159217367,0.3755409258307686,0.3950892161304653,0.4229528255729367,0.45998734147275977,0.5278880239378851,1.4634235562790288,0.9901657458563536,0.41635899277418603,0.0,0.9836170212765958,50,1166,3286,772031,no_split,narrow,individual,1,0.4778907299041748
1,1.0,0.4285699245799689,0.3284508944995462,0.3481804605590733,0.36680872298643197,0.3845466885580293,0.403995850274364,0.4274260077277042,0.4556230649706273,0.4954750469650605,0.5575656254755572,1.4009873414727598,0.9775384615384616,0.41635899277418603,0.0,0.9836170212765958,50,1166,3286,772031,no_split,narrow,individual,1,0.4778907299041748
0,0.0,0.48013082252218964,0.36394194483390946,0.3848921745122237,0.40421857042233816,0.423791824281069,0.44540868224988006,0.4710379418961793,0.503629360999757,0.5536006313287715,0.6386830769572212,1.431240697234854,0.9978409090909091,0.5148886434512605,0.0,0.9936263736263736,50,1166,3292,772031,no_split,narrow,individual,1,0.47115278244018555
1,1.0,0.54742788006571,0.39289537855000317,0.42728339806128385,0.4591220253331188,0.4896162873326306,0.5195996654439543,0.5548875773343828,0.5961128614862076,0.6511481133945806,0.7360800469919164,1.4405329617948186,0.9896808510638297,0.5148886434512605,0.0,0.9936263736263736,50,1166,3292,772031,no_split,narrow,individual,1,0.47115278244018555
0,0.0,0.40469652861439986,0.31280159359497867,0.3274175694542676,0.34101291386899085,0.3561339423780478,0.37304881091038106,0.39325036469839564,0.41941948478073926,0.45990004960024733,0.5328989669842042,1.307589039982594,0.9968983957219252,0.44204862334320044,0.0,0.9842597402597403,50,1166,3487,772031,no_split,narrow,individual,1,0.4705827236175537
1,1.0,0.47732560169817884,0.347053636629685,0.37626952726421453,0.40208927231935576,0.42705001734020703,0.4526626239486783,0.482224970527253,0.5160644743642149,0.5605890399825939,0.6366450912719258,1.2413284013966963,0.9723232323232324,0.44204862334320044,0.0,0.9842597402597403,50,1166,3487,772031,no_split,narrow,individual,1,0.4705827236175537
0,0.0,0.4086719759341505,0.34367075186356766,0.3554905940323541,0.3655239494526521,0.3769371751769125,0.38859292453193006,0.40268122921705024,0.4202456205309377,0.44770976323471817,0.4976744255852624,1.038896552590327,0.9951243781094528,0.4285373776059944,0.0,0.9844670050761422,50,1166,3580,772031,no_split,narrow,individual,1,0.4696943759918213
1,1.0,0.44922621561656745,0.35547266853494663,0.3744936218811447,0.39226398057511286,0.4104608863608712,0.42950878566689843,0.45060938576942194,0.4783237872234515,0.5134715857808063,0.5703330903611841,1.1394178422737091,0.9733678756476684,0.4285373776059944,0.0,0.9844670050761422,50,1166,3580,772031,no_split,narrow,individual,1,0.4696943759918213
0,0.0,0.5015864660817762,0.36718180249972443,0.3881808095707892,0.4093333392792058,0.4313041445672788,0.45648050111711586,0.4899249820184121,0.5297326141845778,0.590596408202385,0.6943256527264347,1.4886367994347498,0.953010752688172,0.5153573851098758,0.0,0.9360220994475138,50,1166,3625,772031,no_split,narrow,individual,1,0.4715454578399658
1,1.0,0.5299107427191174,0.37628543997191566,0.40232828040465896,0.4278608345431061,0.4563183900554783,0.48962398606073315,0.5266900716786524,0.5706369579586116,0.6343131130244382,0.744758552150905,1.4737001083790373,0.9180681818181818,0.5153573851098758,0.0,0.9360220994475138,50,1166,3625,772031,no_split,narrow,individual,1,0.4715454578399658
0,0.0,0.5309378340589735,0.41716332334227507,0.44179604008436024,0.46199513200140097,0.48319997200608805,0.5068654025394034,0.5307316459798895,0.5592630901104062,0.6022505232052828,0.6748968117298156,1.4273273113713865,0.9998876404494382,0.5644579902661536,0.0,0.9992953929539296,50,1166,3754,772031,no_split,narrow,individual,1,0.46913766860961914
1,1.0,0.595696669872845,0.4311735626664003,0.46717384885632135,0.501846592581588,0.5341737773088411,0.5690006904775049,0.6075670286724676,0.6514549807210958,0.7068711531066352,0.7948834390621071,1.4152905562073599,0.9987434554973822,0.5644579902661536,0.0,0.9992953929539296,50,1166,3754,772031,no_split,narrow,individual,1,0.46913766860961914
0,0.0,0.42006222076654615,0.33339812386284307,0.34943707577117916,0.3640552466750813,0.37936106526563773,0.39628155051043074,0.41662079110342787,0.44303274156615974,0.47924571032568597,0.539544007019626,1.3019273101815514,0.9991489361702127,0.4345275685782538,0.0,0.9982383419689119,50,1166,3910,772031,no_split,narrow,individual,1,0.46650266647338867
1,1.0,0.448262343268158,0.3580396039259267,0.37664254357314,0.39419444724797614,0.41148330129161914,0.4303762020072733,0.4505325806596922,0.47386898926815113,0.5069466477897576,0.5614409504663181,1.0397630732693692,0.9973737373737374,0.4345275685782538,0.0,0.9982383419689119,50,1166,3910,772031,no_split,narrow,individual,1,0.46650266647338867
0,0.0,0.4072373221471369,0.3393398354474388,0.35087715049305496,0.3618905568560238,0.3739112362996186,0.3868145810713697,0.40197484056006083,0.4217765152737377,0.45006826253474097,0.5003034203455836,1.1330248806818417,0.9955801104972376,0.4215588330514696,0.0,0.9913157894736843,50,1166,4222,772031,no_split,narrow,individual,1,0.4632279872894287
1,1.0,0.43458493090917916,0.3532691290848417,0.3703223113027076,0.3854174746745334,0.4002029425345411,0.41638324911219327,0.4365055962337823,0.45890172131184875,0.48916747598049637,0.5365070918411556,1.198890960210554,0.9874371859296482,0.4215588330514696,0.0,0.9913157894736843,50,1166,4222,772031,no_split,narrow,individual,1,0.4632279872894287
0,0.0,0.4832303339091454,0.33569702970189474,0.35837337646673134,0.37933407036030414,0.40280680240691424,0.4311612568081649,0.46659625469002963,0.5127373237997028,0.5819162266705834,0.7008160177409443,1.468530720693527,0.9662626262626263,0.5074566927112725,0.0,0.9464987405541562,50,1166,4264,772031,no_split,narrow,individual,1,0.46369361877441406
1,1.0,0.5315613110169064,0.3630757885338652,0.3962046209775514,0.42629961037317676,0.45716457010193823,0.49247148167007015,0.5317519575030598,0.5786348748825386,0.6416049925620491,0.7528464633525191,1.4630509997226382,0.9268341708542713,0.5074566927112725,0.0,0.9464987405541562,50,1166,4264,772031,no_split,narrow,individual,1,0.46369361877441406
0,0.0,0.43015029716761993,0.3473022984911478,0.3627093100300311,0.3768085648483734,0.3913563660322512,0.4072762872085956,0.426364281237357,0.4504754145332217,0.4832860308290514,0.541662518799129,1.2110104628042984,0.9994708994708995,0.45201932293251523,0.0,0.9989130434782608,50,1166,5281,772031,no_split,narrow,individual,1,0.463442325592041
1,1.0,0.4751100819803656,0.3760104628042984,0.39874475222724665,0.41950165939036027,0.4372528752247877,0.45655993055563493,0.47876661024564554,0.5047774987191245,0.5416551317632632,0.5953669663860874,1.1247132254148478,0.9983240223463687,0.45201932293251523,0.0,0.9989130434782608,50,1166,5281,772031,no_split,narrow,individual,1,0.463442325592041
0,0.0,0.4563268665927506,0.35962692830078125,0.3789314484520067,0.395646982657271,0.41177241853487806,0.4304338935612432,0.4510579820774522,0.47989899166985933,0.5165020688651121,0.5861889541769565,1.1773147702882687,0.9997826086956522,0.485069529930001,0.0,0.9990270270270271,50,1166,5332,772031,no_split,narrow,individual,1,0.4626927375793457
1,1.0,0.5135031323711517,0.39779019407651106,0.4254873832996413,0.4506113430677442,0.4717462515570815,0.49425847415746027,0.520284704529647,0.5496334265076395,0.5877085906856816,0.6523219363916547,1.4597866336924066,0.9982795698924731,0.485069529930001,0.0,0.9990270270270271,50,1166,5332,772031,no_split,narrow,individual,1,0.4626927375793457
0,0.0,0.45650087405027817,0.3563947768801237,0.3760390988306374,0.3932229234289831,0.4110814870147146,0.4292604420808808,0.4514863891036875,0.47855218255966436,0.5183184079593232,0.5885144858517902,1.3639701852217845,0.9991878172588833,0.483846020998085,0.0,0.9976923076923077,50,1166,5575,772031,no_split,narrow,individual,1,0.4602632522583008
1,1.0,0.5117579067427376,0.3742837979695471,0.4033879919962152,0.4313090392809347,0.4580039957282064,0.48726372542908114,0.5205666629731145,0.5571568603560622,0.6034427549784281,0.6807881837420997,1.363664703672233,0.9961658031088083,0.483846020998085,0.0,0.9976923076923077,50,1166,5575,772031,no_split,narrow,individual,1,0.4602632522583008
0,0.0,0.4674554969126574,0.34520129316710646,0.36709690424862407,0.386848837542733,0.4063630114650666,0.4280738509771814,0.45581451723349337,0.49007037853431956,0.542971085666009,0.6349233660997947,1.4500304683166096,0.9937823834196892,0.49096490290821626,0.0,0.9896428571428572,50,1166,5731,772031,no_split,narrow,individual,1,0.4632558822631836
1,1.0,0.5137654825923512,0.3614632614568525,0.3925743725441219,0.42103914753348726,0.4496391963300859,0.48242962582047516,0.5172353074914499,0.5598916468402161,0.6166657614284576,0.709908522369597,1.3578794229778703,0.9856281407035176,0.49096490290821626,0.0,0.9896428571428572,50,1166,5731,772031,no_split,narrow,individual,1,0.4632558822631836
0,0.0,0.43719669140931233,0.3543232148751813,0.3690620713010772,0.3820885464386722,0.39526343291052957,0.409847145417392,0.4280885785317736,0.45126591580616837,0.4851873844519997,0.5520436286529087,1.3001897737163264,0.998804347826087,0.47483660581518844,0.0,0.9913896457765667,50,1166,5761,772031,no_split,narrow,individual,1,0.4550497531890869
1,1.0,0.5126822028134463,0.3843166296685043,0.41459204512303116,0.4404480132629999,0.4661436466861587,0.4931873844519997,0.5211158577138716,0.5529427593217701,0.5966547906767279,0.662842199513018,1.2641897737163263,0.9839344262295082,0.47483660581518844,0.0,0.9913896457765667,50,1166,5761,772031,no_split,narrow,individual,1,0.4550497531890869
0,0.0,0.4606060798378767,0.326822740290483,0.3456405260606027,0.36577217103278076,0.3888442658037682,0.41755298126636065,0.4535839477955068,0.4985839477955068,0.5555496229478505,0.6510963614512835,1.420559041945139,0.9429761904761905,0.46640357112707526,0.0,0.9338211382113821,50,1166,5803,772031,no_split,narrow,individual,1,0.457045316696167
1,1.0,0.4712492354881965,0.3437527724964356,0.3667520317619718,0.3870346847007789,0.4087391932962907,0.43355298126636066,0.4637755830562499,0.49983116711528885,0.5525876294936026,0.644310856459294,1.4641323335224867,0.9261691542288557,0.46640357112707526,0.0,0.9338211382113821,50,1166,5803,772031,no_split,narrow,individual,1,0.457045316696167
0,0.0,0.5245480142363905,0.3661135327561651,0.3886065037003551,0.41155980600954245,0.4360074630917759,0.46500729809795494,0.5020160793317865,0.5521135327561651,0.6286663633117976,0.7751929965221911,1.4780584666036338,0.981094527363184,0.5567334583337333,0.0,0.9653229974160207,50,1166,5815,772031,no_split,narrow,individual,1,0.45734739303588867
1,1.0,0.5915145027615069,0.3976319144628606,0.4381823170537141,0.47480159839443564,0.511551093234239,0.5524129890902381,0.5945948482934433,0.6492938415256942,0.720499954895876,0.8365851903639651,1.475113532756165,0.9482795698924731,0.5567334583337333,0.0,0.9653229974160207,50,1166,5815,772031,no_split,narrow,individual,1,0.45734739303588867
0,0.0,0.42031467935555955,0.34840112193405753,0.36204632052435565,0.37381798328317,0.38671994639521035,0.4004463019387163,0.4158737603760236,0.4348121061052575,0.4630628923259775,0.5148197663373799,1.1241279261045365,0.9980898876404495,0.45297088423569914,0.0,0.9946049046321526,50,1166,6055,772031,no_split,narrow,individual,1,0.4563000202178955
1,1.0,0.4837264634349841,0.3740966976453186,0.3981400041345272,0.4198981850628305,0.4414808803206999,0.46489818506283054,0.4900131570165282,0.5196708511481785,0.5597098102429233,0.6176143082425308,1.2160466338813376,0.9913227513227513,0.45297088423569914,0.0,0.9946049046321526,50,1166,6055,772031,no_split,narrow,individual,1,0.4563000202178955
0,0.0,0.4866971510580624,0.3470397042590443,0.36825197210085153,0.38924254220226967,0.41295605721621176,0.4410397042590443,0.4739446353135747,0.5185856834398483,0.5810698760516618,0.6875320295235845,1.448696249153917,0.9786734693877551,0.49740507399773004,0.0,0.9693989071038251,50,1166,6109,772031,no_split,narrow,individual,1,0.4504561424255371
1,1.0,0.5097506792693469,0.37062278814383753,0.39696783380154343,0.4205278325410099,0.4471265063613172,0.47397683598371454,0.5049980667775829,0.5472193922556162,0.6019986567219314,0.6947969921145036,1.4478315243839466,0.9587058823529412,0.49740507399773004,0.0,0.9693989071038251,50,1166,6109,772031,no_split,narrow,individual,1,0.4504561424255371
0,0.0,0.3995981339942051,0.3273639596277792,0.337879804260082,0.3481448941914656,0.35935325495802933,0.37147029326844266,0.38727691241106627,0.40986113013545544,0.4432211807161242,0.5059639282619358,1.3533491620854854,0.9926415094339622,0.43198290052060656,0.0,0.9708393285371703,50,1166,6214,772031,no_split,narrow,individual,1,0.4584512710571289
1,1.0,0.4654734883430316,0.36059136468067104,0.3851517922103126,0.4050813031832021,0.4256390753088546,0.44639159429337255,0.46826082823215576,0.49671121839183713,0.5321517922103126,0.5932385862525387,1.316234629400681,0.9482926829268292,0.43198290052060656,0.0,0.9708393285371703,50,1166,6214,772031,no_split,narrow,individual,1,0.4584512710571289
0,0.0,0.47682599533065406,0.3455782030488649,0.36670430127607884,0.3868028904113872,0.40886009493685804,0.4342006996340476,0.46486009493685804,0.5053638732899584,0.5653801753700792,0.6608682739985264,1.477860094936858,0.9744680851063829,0.4863760591040046,0.0,0.9681167108753316,50,1166,6253,772031,no_split,narrow,individual,1,0.4801769256591797
1,1.0,0.495875593439401,0.3568709883940604,0.3822612525073511,0.40620069963404765,0.43079114987599043,0.4602124307619646,0.4933626349963513,0.5343524179778013,0.590354306802441,0.6800955601744842,1.4789064535429892,0.9617989417989418,0.4863760591040046,0.0,0.9681167108753316,50,1166,6253,772031,no_split,narrow,individual,1,0.4801769256591797
0,0.0,0.4705752920562077,0.36126718813199654,0.3805728161867096,0.3968452739607731,0.41409696991095984,0.4346523268621404,0.4595760750893836,0.49037957211081756,0.5380693130234371,0.6242896131823278,1.3980623988015564,0.9946961325966851,0.4979133712659123,0.0,0.9898913043478261,50,1166,6262,772031,no_split,narrow,individual,1,0.4768702983856201
1,1.0,0.5243742928539151,0.38276320142902,0.41394189663728,0.4418315475289141,0.4695658902501064,0.4977179361051477,0.527493014581404,0.5652723879590269,0.616910634677319,0.6989971920502497,1.401228002958809,0.9852406417112299,0.4979133712659123,0.0,0.9898913043478261,50,1166,6262,772031,no_split,narrow,individual,1,0.4768702983856201
0,0.0,0.5072175024801668,0.3995163637354303,0.4191472604553841,0.4372403741233284,0.4562786559856398,0.47792279272478266,0.5031067938643803,0.5327936163450321,0.5780371389603918,0.6525893003297459,1.4641472604553842,0.9988235294117647,0.5242093535031848,0.0,0.9976086956521739,50,1166,6361,772031,no_split,narrow,individual,1,0.47689270973205566
1,1.0,0.5417644703059713,0.4260065354007814,0.4509474826783195,0.473001274687435,0.4949740239671999,0.5171200528207665,0.5428231332848916,0.5740091657574546,0.6172523999275764,0.684251611239695,1.3818670631773688,0.996353591160221,0.5242093535031848,0.0,0.9976086956521739,50,1166,6361,772031,no_split,narrow,individual,1,0.47689270973205566
0,0.0,0.4237743786438357,0.3222152917265093,0.34010477691292446,0.35705331331535956,0.3747333527618198,0.3955995225072972,0.42000308047273,0.45001016818620754,0.4903047121894868,0.563200029002651,1.2076880286612737,0.9987978142076502,0.4380719236539018,0.0,0.9976315789473684,50,1166,6427,772031,no_split,narrow,individual,1,0.47910022735595703
1,1.0,0.45135339947543535,0.3526935563853949,0.3738914693164228,0.3914647803130451,0.4099702511386982,0.42936730912726495,0.45219131398031337,0.4797382738907267,0.5157020070139351,0.5771725766311137,1.175304587554697,0.9965482233502538,0.4380719236539018,0.0,0.9976315789473684,50,1166,6427,772031,no_split,narrow,individual,1,0.47910022735595703
0,0.0,0.4770213967206874,0.3740628270755559,0.3912085583095136,0.40786753234117235,0.4260368547380789,0.44515955339643304,0.46867357686000294,0.5001994714549723,0.5487970335429532,0.6218192293442119,1.4167138378637827,0.9917277486910995,0.48734808751625036,0.0,0.9881266490765171,50,1166,6583,772031,no_split,narrow,individual,1,0.47943782806396484
1,1.0,0.49783956593089135,0.3972663813533302,0.4165504386666638,0.43412133537129244,0.45205799553692494,0.47245625784132944,0.4959772795364468,0.5261052339453356,0.5652760867655144,0.6295251840663261,1.2597982963834125,0.984468085106383,0.48734808751625036,0.0,0.9881266490765171,50,1166,6583,772031,no_split,narrow,individual,1,0.47943782806396484
0,0.0,0.44790558124929175,0.356222420316047,0.37131519467377805,0.38511011466692585,0.4000124625168426,0.416222420316047,0.43601246251684256,0.461443339235938,0.5008978722899576,0.5798909657955091,1.402116315886422,0.9892307692307692,0.4761172735569841,0.0,0.9716923076923077,50,1166,6634,772031,no_split,narrow,individual,1,0.477449893951416
1,1.0,0.5043289658646763,0.3738925851685281,0.39961306264532903,0.42570932887671065,0.45117630329514885,0.4779666696990623,0.5094607109535919,0.5480733170223026,0.593613062645329,0.6654459845001377,1.4226059791522507,0.9541538461538461,0.4761172735569841,0.0,0.9716923076923077,50,1166,6634,772031,no_split,narrow,individual,1,0.477449893951416
0,0.0,0.463090616885109,0.3689143864297873,0.38498849982132183,0.3982850610679635,0.4129449531519962,0.4300377101911065,0.45098849982132183,0.47793723996687304,0.5169864985846555,0.5961870795332905,1.407985998275489,0.9968421052631579,0.5025111810956354,0.0,0.9848,50,1166,6844,772031,no_split,narrow,individual,1,0.4775815010070801
1,1.0,0.5429971659605002,0.40250626848880683,0.4321317165581627,0.4606243772108857,0.4902772538004646,0.5207111274719564,0.5510707979754029,0.5888949628017777,0.6355128722234406,0.711169271369604,1.4397993536442253,0.9724324324324324,0.5025111810956354,0.0,0.9848,50,1166,6844,772031,no_split,narrow,individual,1,0.4775815010070801
0,0.0,0.450512670983985,0.35101586045631766,0.36568432852462385,0.38100130857075026,0.39676638409254505,0.4155213764321763,0.43776562615412057,0.4671702218774454,0.5138050494922373,0.5940459452541677,1.453829725997815,0.9853551912568306,0.47778830088824487,0.0,0.9676294277929155,50,1166,7624,772031,no_split,narrow,individual,1,0.4770853519439697
1,1.0,0.5049156936734599,0.37568155019311866,0.40252121055208856,0.42632978110283837,0.44980058544696183,0.476518452516022,0.5059019586197052,0.5432781412477934,0.5911954240474206,0.6722877251895032,1.4690252211373935,0.95,0.47778830088824487,0.0,0.9676294277929155,50,1166,7624,772031,no_split,narrow,individual,1,0.4770853519439697
0,0.0,0.4109348543765274,0.33594692999253617,0.34823656726962543,0.3592213557116372,0.37066480569746957,0.3833125455565968,0.3993529788293034,0.42100186892936614,0.45265960375897674,0.5154224106684385,1.3331014595952375,0.9882352941176471,0.44223591356307873,0.0,0.9615665796344648,50,1166,7756,772031,no_split,narrow,individual,1,0.4799313545227051
1,1.0,0.4720996792155539,0.35397727142629454,0.37823965634366097,0.4018157239870938,0.42610069960808467,0.45225421479798766,0.47988746250621045,0.5129088132140057,0.5519543648374078,0.6153356941976398,1.1446803165208688,0.9361224489795918,0.44223591356307873,0.0,0.9615665796344648,50,1166,7756,772031,no_split,narrow,individual,1,0.4799313545227051
0,0.0,0.4458175534935014,0.33010159370711306,0.35206953290993576,0.37079370699235886,0.3918269367668373,0.4141576990561925,0.4405081604503881,0.4738515064047839,0.5219352152252508,0.5975015405076693,1.3235072230122793,0.9971875,0.4616564343981359,0.0,0.9952941176470588,50,1166,7768,772031,no_split,narrow,individual,1,0.4797501564025879
1,1.0,0.4783655834843438,0.3461119879339646,0.3726968875393699,0.3973855267213548,0.42238631050213893,0.4493622941225709,0.48010088055077105,0.5157835932729358,0.5643183459725747,0.6480963243679965,1.2401519681584674,0.9932967032967033,0.4616564343981359,0.0,0.9952941176470588,50,1166,7768,772031,no_split,narrow,individual,1,0.4797501564025879
0,0.0,0.40679592152363064,0.3106182507569315,0.3262338721653719,0.3406758237570363,0.35599777830315094,0.37323111927203734,0.39333348901758325,0.4201656026929557,0.46161070491020084,0.5410069104452897,1.394095338844687,0.9894117647058823,0.44490789754571103,0.0,0.9604301075268817,50,1166,7807,772031,no_split,narrow,individual,1,0.4774503707885742
1,1.0,0.4834318949301923,0.3311761508432235,0.363158628106134,0.3917310652047124,0.42199784081056896,0.45367844522507883,0.48854038315243414,0.5295698409258799,0.5833235473586784,0.6694812623875568,1.4476094025291912,0.9311351351351351,0.44490789754571103,0.0,0.9604301075268817,50,1166,7807,772031,no_split,narrow,individual,1,0.4774503707885742
0,0.0,0.404336631802569,0.3223073374351479,0.3350810381483182,0.3472120925033413,0.3606789431498194,0.37570416036541815,0.39436509404067593,0.4196959266288785,0.4584349424028743,0.5226936796752772,1.2336362249261745,0.9920879120879121,0.426190673384256,0.0,0.9790581717451523,50,1166,7813,772031,no_split,narrow,individual,1,0.4699442386627197
1,1.0,0.44841098381926736,0.3466203700343707,0.36822361540361964,0.3866819477288792,0.4059548762061707,0.426397659520671,0.4492469605215129,0.4773236083787455,0.5165882797509664,0.5791599944631175,1.2015552890594035,0.9658100558659218,0.426190673384256,0.0,0.9790581717451523,50,1166,7813,772031,no_split,narrow,individual,1,0.4699442386627197
0,0.0,0.41078681869114747,0.33635799616902334,0.3510768680191331,0.3640461438132864,0.3772033220896828,0.3912165056874299,0.4069573239323846,0.428873666483671,0.45845023228045945,0.5103957322191421,0.9492595584497624,0.9997872340425532,0.44368133733450116,0.0,0.9991584158415842,50,1166,7828,772031,no_split,narrow,individual,1,0.474884033203125
1,1.0,0.472311751709272,0.37843543698772536,0.4022595584497623,0.4211320728562024,0.43859955975717024,0.4564574389956342,0.4772165056874299,0.501825375195676,0.5338345145090689,0.5839686359981497,1.113791618824365,0.9986111111111111,0.44368133733450116,0.0,0.9991584158415842,50,1166,7828,772031,no_split,narrow,individual,1,0.474884033203125
0,0.0,0.5433652886814823,0.39345361942137835,0.41812366333486295,0.44159846681131465,0.46499145131054653,0.493296733820722,0.5277767183402587,0.5757766561559098,0.6444178223741768,0.759168796740557,1.5113824754820069,0.9947089947089947,0.5741325656594568,0.0,0.9885271317829457,50,1166,7840,772031,no_split,narrow,individual,1,0.4785497188568115
1,1.0,0.6035013300475236,0.42299865816887017,0.46068995413904845,0.4943060881756931,0.527703940129182,0.5659898788874924,0.6088821442013834,0.6578050796671305,0.7240068349600671,0.8347334221238855,1.4792783714554125,0.9826262626262626,0.5741325656594568,0.0,0.9885271317829457,50,1166,7840,772031,no_split,narrow,individual,1,0.4785497188568115
0,0.0,0.4795825927947746,0.3887049814517898,0.4058076517151681,0.42295575847288125,0.4392128727866382,0.45810739309579157,0.479277879187907,0.5044119337584418,0.5389611266823168,0.597826079797265,1.081277879187907,1.0,0.5048301394614413,0.0,0.9996266666666667,50,1166,7924,772031,no_split,narrow,individual,1,0.4775257110595703
1,1.0,0.528135567153749,0.4271679756372105,0.4519385203824995,0.4721337373395724,0.4915513384330302,0.5107767804676304,0.5330244781749868,0.5585182306687868,0.5936975630253807,0.6498751252518227,1.1414378923211022,0.9992820512820513,0.5048301394614413,0.0,0.9996266666666667,50,1166,7924,772031,no_split,narrow,individual,1,0.4775257110595703
0,0.0,0.4686479131888128,0.3574730762079708,0.37802149940080987,0.3974082275102625,0.4175782526873817,0.44003645069165126,0.4662932334049469,0.49940311370303536,0.5430243042031325,0.6172979427813542,1.350458619421566,0.999578947368421,0.4873436813433764,0.0,0.9988354430379747,50,1166,7939,772031,no_split,narrow,individual,1,0.47885775566101074
1,1.0,0.5046714664622403,0.3946107158432137,0.4197325507407876,0.44109233554345445,0.46130673522368754,0.4821077851751487,0.5069361319885798,0.5363320999136548,0.5760770560951874,0.6418797947664306,1.3397137067608542,0.9981463414634146,0.4873436813433764,0.0,0.9988354430379747,50,1166,7939,772031,no_split,narrow,individual,1,0.47885775566101074
0,0.0,0.4584013388593519,0.3435532489625707,0.36198445105300253,0.37992962753097986,0.39846645902860944,0.42050061481852863,0.44744980009664875,0.4825326549236555,0.5336910447700844,0.6212125745556946,1.46655668130239,0.9913939393939394,0.4812883619718326,0.0,0.9828813559322034,50,1166,8026,772031,no_split,narrow,individual,1,0.47788262367248535
1,1.0,0.5012690964351094,0.3735827692517172,0.3995498166227515,0.42184885718193066,0.44463442745227283,0.46995103434219954,0.4978551138035559,0.5355977396939214,0.5864979883483772,0.6715940951772075,1.3563123430709538,0.9754497354497355,0.4812883619718326,0.0,0.9828813559322034,50,1166,8026,772031,no_split,narrow,individual,1,0.47788262367248535
0,0.0,0.4640824071523115,0.3338699026447165,0.35336612574613213,0.3721481091045751,0.3934537911581219,0.4190063186847644,0.4509749960627562,0.49302049137179926,0.5534378498448516,0.6582494576962206,1.394371684588391,0.9500534759358289,0.4762453537496304,0.0,0.934958904109589,50,1166,8311,772031,no_split,narrow,individual,1,0.48353004455566406
1,1.0,0.48902328079288115,0.3522396888485286,0.37771683870381556,0.4017107413022958,0.4246590930983806,0.45147147529709086,0.48302402875731604,0.5239360770299366,0.5800135997836144,0.6710734592569595,1.4548514930646133,0.9191011235955057,0.4762453537496304,0.0,0.934958904109589,50,1166,8311,772031,no_split,narrow,individual,1,0.48353004455566406
0,0.0,0.3860423502773995,0.3121507213703154,0.32500781024085024,0.3371448144166471,0.34901956114030525,0.36128401910790986,0.37646296026495085,0.39628401910790984,0.4261911555318146,0.48296890393883457,1.332573753931322,0.9961658031088083,0.4246574062331404,0.0,0.9762601626016261,50,1166,8446,772031,no_split,narrow,individual,1,0.4798924922943115
1,1.0,0.46700232554824267,0.33514162452741625,0.3636739735841543,0.39108659160195924,0.41721240859701253,0.44710037395984825,0.47714685570190446,0.513315675014921,0.5556773425144289,0.6243895387979473,1.3369330773376202,0.9544318181818182,0.4246574062331404,0.0,0.9762601626016261,50,1166,8446,772031,no_split,narrow,individual,1,0.4798924922943115
0,0.0,0.497132769444177,0.3937464890057089,0.4117004562605691,0.4272319587174018,0.4452478849248398,0.46469350042281554,0.48816801084466976,0.5190990973371429,0.5649066708171525,0.6448815820468708,1.367098297353325,0.994070351758794,0.5088814194474401,0.0,0.9901818181818182,50,1166,8521,772031,no_split,narrow,individual,1,0.47514963150024414
1,1.0,0.5214512116552323,0.41155774083129604,0.43470435108456085,0.45444478509841707,0.4737316552177001,0.49485731586112003,0.5208639972692126,0.5514908609120514,0.5931970677633769,0.6661362784450466,1.423837545351948,0.986021505376344,0.5088814194474401,0.0,0.9901818181818182,50,1166,8521,772031,no_split,narrow,individual,1,0.47514963150024414
0,0.0,0.565011009924185,0.4127998350408948,0.44113565733498095,0.46880044703356694,0.4949017702104788,0.5249010306752477,0.5602269681315658,0.6067131349270871,0.6700632823428628,0.7698874071617641,1.4916773402111227,0.9973770491803279,0.5792640651796377,0.0,0.9968481375358166,50,1166,8704,772031,no_split,narrow,individual,1,0.4889833927154541
1,1.0,0.5949767706720946,0.4401562266471235,0.4720141658906882,0.4999907109200631,0.5288940464541515,0.5586572307256152,0.5940296080832163,0.6363904590569432,0.6951743377828227,0.7960440615608944,1.4973831831902282,0.9962650602409638,0.5792640651796377,0.0,0.9968481375358166,50,1166,8704,772031,no_split,narrow,individual,1,0.4889833927154541
0,0.0,0.45224312192188243,0.3495011445479567,0.3698976371725675,0.38946031533897474,0.40892418926899216,0.42776295136803744,0.4497608615281306,0.479117086729108,0.5191288085306653,0.5857667619314253,1.303845163677184,0.999903381642512,0.4742860623073599,0.0,0.9997938144329896,50,1166,8755,772031,no_split,narrow,individual,1,0.4808330535888672
1,1.0,0.49949539191948034,0.37107639368719236,0.40184245477917074,0.4276675497786514,0.4531005365133808,0.4792953182204226,0.5075451447057413,0.5411518520398391,0.5843149037222863,0.6515196121680781,1.3449331450840445,0.9996685082872928,0.4742860623073599,0.0,0.9997938144329896,50,1166,8755,772031,no_split,narrow,individual,1,0.4808330535888672
0,0.0,0.46712746303389097,0.35439292938513317,0.3729310465837125,0.38880375175602166,0.40697245266155324,0.42825533852880865,0.45436104707155855,0.4880960060279966,0.5409821154233234,0.6324403741498488,1.4056169232640514,0.9959615384615385,0.4910966938031217,0.0,0.9895,50,1166,8785,772031,no_split,narrow,individual,1,0.47803497314453125
1,1.0,0.5170633604697884,0.37992267246041284,0.409977218198362,0.43592567724030423,0.46177449725750586,0.4901942832893277,0.520525187172253,0.5571057469687406,0.6053245634091441,0.6879440288222121,1.4308673722872833,0.9825,0.4910966938031217,0.0,0.9895,50,1166,8785,772031,no_split,narrow,individual,1,0.47803497314453125
0,0.0,0.40936017023986837,0.318894358564321,0.3321362236750158,0.345417128475575,0.35837072257423563,0.37401437659902736,0.3920489514878698,0.4165198566053657,0.45704529097147945,0.5419740093452656,1.3690355663953038,0.9798936170212766,0.4435998024118314,0.0,0.9440616966580977,50,1166,8788,772031,no_split,narrow,individual,1,0.4808356761932373
1,1.0,0.47562493101048336,0.3388646614937938,0.3669468579647985,0.39555926062048186,0.42355556314950427,0.4514821596422081,0.4829244247765317,0.5199501814870583,0.5658763216215684,0.6380443807624606,1.4650143765990273,0.910547263681592,0.4435998024118314,0.0,0.9440616966580977,50,1166,8788,772031,no_split,narrow,individual,1,0.4808356761932373
0,0.0,0.4295620955563403,0.3714698852882094,0.3810139154200557,0.3897504756554967,0.39924445516593215,0.40982117386177264,0.4222215019514124,0.43884990145932995,0.46501649873175244,0.5132625787986949,1.1397766711256132,0.997,0.4555613451009669,0.0,0.9853551912568306,50,1166,161753,772031,no_split,narrow,individual,1,0.47788405418395996
1,1.0,0.48072190917641194,0.3983890250353609,0.4161810079450842,0.43193961464618463,0.4485114745831444,0.4642440088341304,0.48392566847279606,0.5065384846481304,0.5368316882845028,0.5835788509871366,0.9740129308951476,0.9740860215053764,0.4555613451009669,0.0,0.9853551912568306,50,1166,161753,772031,no_split,narrow,individual,1,0.47788405418395996
0,0.0,0.4500874672321054,0.3711771771057583,0.3876658640796263,0.401136906929576,0.41473359870696025,0.4293078988466165,0.446257737099289,0.46836298084557226,0.4977177077594647,0.5516574392180826,1.3785195513661133,0.9989690721649485,0.47294764874120837,0.0,0.9981382978723404,50,1166,337788,772031,no_split,narrow,individual,1,0.47840023040771484
1,1.0,0.4973150949651971,0.39100166186868296,0.41481620358147825,0.4344473394153621,0.4560608892648518,0.47833126768025247,0.5026658640796262,0.5329703101861057,0.5705544742441278,0.6281423319145369,1.1040051453889694,0.9972527472527473,0.47294764874120837,0.0,0.9981382978723404,50,1166,337788,772031,no_split,narrow,individual,1,0.47840023040771484
