,congruency,mean_rt,qu10_rt,qu20_rt,qu30_rt,qu40_rt,qu50_rt,qu60_rt,qu70_rt,qu80_rt,qu90_rt,qu100_rt,mean_acc,mean_rt_overall,nonconvergent_trials,accuracy_overall,n_posterior_draws,condition,id,slurm_id,split,spacing,estimation_level,number_parts,time_post_sampling_sec
0,0.0,0.4283743950671884,0.332026612757901,0.34859027211632915,0.3649466501376355,0.38164072185836473,0.4010132448500191,0.42469351377181397,0.45359293215590324,0.4935018940578953,0.5614043534663976,1.473927743289,0.9941052631578947,0.43836324496972257,0.0,0.9902645502645503,50,536,1108,772091,no_split,wide,individual,1,0.7214736938476562
1,1.0,0.44845835923292193,0.35426986567538155,0.37182182341100645,0.3884691365968231,0.405481790348529,0.4244958571808095,0.44682645287183476,0.4739490263663521,0.5104304205119232,0.5685481530856986,1.338949026366352,0.9863829787234043,0.43836324496972257,0.0,0.9902645502645503,50,536,1108,772091,no_split,wide,individual,1,0.7214736938476562
0,0.0,0.4646914976524428,0.34292230383079425,0.3664764126742216,0.3881462401410199,0.4101548495701567,0.4342640109608371,0.4629961006512559,0.4975961601979868,0.5461348202585047,0.6286969769068662,1.243778320501975,0.9957671957671957,0.47270466083818496,0.0,0.9950526315789474,50,536,1507,772091,no_split,wide,individual,1,0.7105863094329834
1,1.0,0.4806339165560135,0.3656309216374088,0.38778963152487944,0.40915406432441814,0.4311916790565936,0.4543220330859464,0.4800142388425109,0.5119396599178648,0.5579702775521699,0.6293311337875122,1.3436381395960555,0.9943455497382199,0.47270466083818496,0.0,0.9950526315789474,50,536,1507,772091,no_split,wide,individual,1,0.7105863094329834
0,0.0,0.4618783350448402,0.35131413331485095,0.37246137829086323,0.3908972366562746,0.4113138468146327,0.4342630396970134,0.46022328523326944,0.4925811579917587,0.5358660141299986,0.6092281250473276,1.3829460342740245,0.9927368421052631,0.46906720146285374,0.0,0.9921784776902887,50,536,1538,772091,no_split,wide,individual,1,0.7077949047088623
1,1.0,0.47621842983679386,0.3759135403465059,0.3956712427708814,0.41361751053315726,0.4313869486376385,0.45285903583385384,0.4743722541609191,0.5025698654611845,0.5415884285000385,0.6068090375712284,1.3281960872282517,0.9916230366492147,0.46906720146285374,0.0,0.9921784776902887,50,536,1538,772091,no_split,wide,individual,1,0.7077949047088623
0,0.0,0.4785390890654503,0.36526616685236946,0.3911903546535242,0.41261901586118516,0.4341596306823713,0.45663361599608165,0.4822622688738643,0.5114437747588044,0.5514677412707892,0.6211873823030087,1.1677899116467905,0.9992391304347826,0.4836820320736759,0.0,0.9988648648648648,50,536,1582,772091,no_split,wide,individual,1,0.7029402256011963
1,1.0,0.4887696746194474,0.3945328868223246,0.41295627407456437,0.4303747031451736,0.4482546407996037,0.4676355636406538,0.48926204844148174,0.5153020264315629,0.5518552350293302,0.6124149907687355,1.2645341950892293,0.998494623655914,0.4836820320736759,0.0,0.9988648648648648,50,536,1582,772091,no_split,wide,individual,1,0.7029402256011963
0,0.0,0.4461910189141898,0.35213123400784924,0.36703296864553037,0.3821881778896962,0.3980028518987145,0.4170028518987145,0.4391361182915582,0.46854890267955723,0.5091487532891379,0.5788967477400108,1.2598788911700454,0.991413612565445,0.46152177500074804,0.0,0.9863185378590078,50,536,1583,772091,no_split,wide,individual,1,0.7008357048034668
1,1.0,0.4767726833993555,0.37368323677241677,0.39467648926150345,0.41199155753556693,0.4310462817428125,0.45204273595156674,0.4759294870895472,0.5059769244857509,0.5447228197120643,0.6134900315732398,1.2949757636100951,0.98125,0.46152177500074804,0.0,0.9863185378590078,50,536,1583,772091,no_split,wide,individual,1,0.7008357048034668
0,0.0,0.5984871425377922,0.38118044133661966,0.43019046689268675,0.4725707717757563,0.5147876570104996,0.5582147244982225,0.6049614255093746,0.6642700063313289,0.7460606736783482,0.8730496948985943,1.4405616398966452,0.9977401129943503,0.6060135127495015,0.0,0.9971428571428571,50,536,1597,772091,no_split,wide,individual,1,0.7047905921936035
1,1.0,0.613137403270745,0.4201897125388973,0.45874191226939,0.4956976052176957,0.5304758074014567,0.5701315097268251,0.6169757277678188,0.6710468866347838,0.7421107593808975,0.8672241300257398,1.4534794535082378,0.9965775401069519,0.6060135127495015,0.0,0.9971428571428571,50,536,1597,772091,no_split,wide,individual,1,0.7047905921936035
0,0.0,0.4248685122682523,0.3236559484001183,0.34485828647799177,0.3648816881052215,0.38453664788142866,0.40468920889064813,0.42805004132633795,0.45525944504508137,0.4927918996317741,0.5503412495442629,1.104685455209437,0.9994736842105263,0.4334757859802367,0.0,0.999155672823219,50,536,1601,772091,no_split,wide,individual,1,0.69931960105896
1,1.0,0.44212860082297245,0.35240547976115866,0.3722612780943262,0.389014952403696,0.4050122305326244,0.42221122666327676,0.4424517691811183,0.46785845155238237,0.5014724930618325,0.5536920019702805,1.248255687746323,0.9988359788359789,0.4334757859802367,0.0,0.999155672823219,50,536,1601,772091,no_split,wide,individual,1,0.69931960105896
0,0.0,0.48693664126377234,0.33831284570604514,0.3635912737009104,0.38817374663713533,0.41533987787508375,0.44530662899878426,0.4807275577469083,0.5232516792660307,0.5836627566239454,0.6922237119610412,1.430480538296404,0.992,0.5005712728427197,0.0,0.9899473684210527,50,536,1614,772091,no_split,wide,individual,1,0.7018706798553467
1,1.0,0.5142059044216671,0.36951040738403507,0.39854429794656815,0.4248262206348247,0.45017321119255066,0.4784574183618626,0.5102349400659558,0.5533542787592882,0.6118121174366751,0.7025826000603111,1.4459362826043602,0.9878947368421053,0.5005712728427197,0.0,0.9899473684210527,50,536,1614,772091,no_split,wide,individual,1,0.7018706798553467
0,0.0,0.4389229100045894,0.37192052771031847,0.38875104038815533,0.40246467154399507,0.4153641774632067,0.42853353869481003,0.44350008452270717,0.461330939629946,0.48384325990091925,0.5175348458669305,0.8579041459334269,1.0,0.44510233174792413,0.0,1.0,50,536,161753,772091,no_split,wide,individual,1,0.7071161270141602
1,1.0,0.4512494004978383,0.3880688894374307,0.40350357812131465,0.4166656986418036,0.4290713834744277,0.4420716678802766,0.45601927818095667,0.4721664842683364,0.49321984056674806,0.5256527677669428,0.8167510403881554,1.0,0.44510233174792413,0.0,1.0,50,536,161753,772091,no_split,wide,individual,1,0.7071161270141602
0,0.0,0.4856519257283969,0.3609199386213169,0.38752192151317466,0.4119547021075092,0.4352984228785606,0.4598363375101586,0.4879302283535279,0.5216350305046358,0.5672840935837111,0.6413577780936119,1.4816619416286407,0.9990425531914894,0.49460612069836263,0.0,0.998891820580475,50,536,1638,772091,no_split,wide,individual,1,0.7025024890899658
1,1.0,0.5034196738625174,0.39062355493093326,0.4132984228785606,0.4338833307334454,0.45379693297270735,0.4759317023612133,0.5017189577900331,0.5337292453802753,0.579357083786346,0.6551652550162788,1.4019547021075092,0.9987434554973822,0.49460612069836263,0.0,0.998891820580475,50,536,1638,772091,no_split,wide,individual,1,0.7025024890899658
0,0.0,0.40429982393374714,0.31758125461834863,0.33220601282577794,0.34630273299565023,0.3619276674157075,0.37838190301608465,0.39956296877404884,0.4264071306954614,0.4614367428420425,0.5254465537252428,1.1846911019150175,0.9953684210526316,0.4166244855085284,0.0,0.9923482849604222,50,536,1657,772091,no_split,wide,individual,1,0.7013533115386963
1,1.0,0.42901435693291173,0.3392796250085344,0.35816324275564987,0.3746416430001198,0.390264044470748,0.40875424905732183,0.428920795218414,0.45416399844221994,0.48867723338144264,0.5476577964907434,1.378563628595618,0.9893121693121694,0.4166244855085284,0.0,0.9923482849604222,50,536,1657,772091,no_split,wide,individual,1,0.7013533115386963
0,0.0,0.4716933247838525,0.37430083870989883,0.39217318009830393,0.40863975057074137,0.4251253866711968,0.44459321560976556,0.46833162415555457,0.49643519379070505,0.5342649407656653,0.6038608929326476,1.3705880810727091,0.9962765957446809,0.48175562017955226,0.0,0.9942328042328042,50,536,1663,772091,no_split,wide,individual,1,0.7070968151092529
1,1.0,0.49171199667634974,0.3939718834337301,0.4131270446739967,0.4312314373758807,0.4491145768213774,0.4686358908858773,0.49218480371774564,0.5191403587113648,0.5565352051464864,0.618577799233058,1.4280337503927198,0.9922105263157894,0.48175562017955226,0.0,0.9942328042328042,50,536,1663,772091,no_split,wide,individual,1,0.7070968151092529
0,0.0,0.5441698998648365,0.3783086965698058,0.41409634117054517,0.44705811769085524,0.4774157122314054,0.511067088589116,0.5476366633036034,0.5933514817289136,0.655259841261698,0.754421753368629,1.468966610501694,0.9978494623655914,0.5537525067430978,0.0,0.9978016085790885,50,536,1761,772091,no_split,wide,individual,1,0.702916145324707
1,1.0,0.5632838697343093,0.4135202166012595,0.4443216004082614,0.4705468432242174,0.49832827021330894,0.5267337977778287,0.5605005887421478,0.6037570360442429,0.6637984745238069,0.7625932386478299,1.4770981304760284,0.9977540106951872,0.5537525067430978,0.0,0.9978016085790885,50,536,1761,772091,no_split,wide,individual,1,0.702916145324707
0,0.0,0.4642441981695526,0.33454692019229393,0.35592015824451134,0.3768909418861532,0.3985298716443346,0.42609262775834633,0.45898189987453053,0.4995172702042652,0.5550017286979093,0.6435566462535324,1.4506930244509564,0.989738219895288,0.4734669730386625,0.0,0.987958115183246,50,536,1768,772091,no_split,wide,individual,1,0.7015590667724609
1,1.0,0.48268974790777247,0.356356126278722,0.382467257614249,0.40440249637950404,0.42669296980695376,0.45222540149838086,0.481484778918508,0.5174298744050941,0.5662362698001473,0.6474812181096816,1.4014752414457168,0.9861780104712042,0.4734669730386625,0.0,0.987958115183246,50,536,1768,772091,no_split,wide,individual,1,0.7015590667724609
0,0.0,0.3856267039526508,0.2950166887787519,0.31101170332271966,0.3263264422095908,0.34195804262675095,0.35967271573138254,0.3802149464537828,0.4073965494175059,0.44740218860239644,0.5117557490066287,1.1261983443873067,0.9917021276595744,0.3954742039526508,0.0,0.9876063829787234,50,536,1813,772091,no_split,wide,individual,1,0.7022271156311035
1,1.0,0.4053217039526508,0.30998729806413877,0.3288147254026093,0.3458814858081745,0.3647989991633494,0.3836290600285811,0.4048420021844776,0.4308791827633897,0.4663254668998265,0.5295878538336267,1.1601203134182465,0.9835106382978723,0.3954742039526508,0.0,0.9876063829787234,50,536,1813,772091,no_split,wide,individual,1,0.7022271156311035
0,0.0,0.4052505327186175,0.3044929031679266,0.3248998633287361,0.34442375575240225,0.36392339947160257,0.38415790116161597,0.4061015916595093,0.433666864634385,0.4727578595598231,0.5318244980159682,1.2374687279567882,0.9969473684210526,0.4115154112930062,0.0,0.9960629921259843,50,536,1821,772091,no_split,wide,individual,1,0.6999621391296387
1,1.0,0.4177474894560107,0.3275110113716192,0.34577614464253403,0.36142375575240226,0.37741583180086036,0.3947633305287689,0.4152563189131105,0.43992739391009966,0.47615119822745205,0.5381395799034331,1.0317926388489846,0.9951832460732984,0.4115154112930062,0.0,0.9960629921259843,50,536,1821,772091,no_split,wide,individual,1,0.6999621391296387
0,0.0,0.4675788327324035,0.3556035662214885,0.38222277872906296,0.40427305625681204,0.42587381260977225,0.4464199258171038,0.4721235392231627,0.5018340455798117,0.5407209853300392,0.6054440725162586,1.375123299798657,0.9995811518324608,0.4637708428694203,0.0,0.9995744680851064,50,536,275,772091,no_split,wide,individual,1,0.7042911052703857
1,1.0,0.4598393506325026,0.35994703766737934,0.38018040182919605,0.3992655106245481,0.4179179495415497,0.4375676731085844,0.4598438727419746,0.48868050921322853,0.5249822900936351,0.5911277901743157,1.426936470621616,0.9995675675675676,0.4637708428694203,0.0,0.9995744680851064,50,536,275,772091,no_split,wide,individual,1,0.7042911052703857
0,0.0,0.3817341534995392,0.3081948325105658,0.3214320167070253,0.33380173840816735,0.34636593297318347,0.3607643739055396,0.3776669372709248,0.3993801636422726,0.4314499502212678,0.48406337546251293,1.0198168459516577,0.9951063829787234,0.3911653750696053,0.0,0.9937400530503979,50,536,3286,772091,no_split,wide,individual,1,0.7008779048919678
1,1.0,0.40054669599644344,0.3161301921304569,0.3333674751906732,0.34891186025762877,0.36376282788010533,0.3814870258437119,0.40171942873755917,0.42482274293438527,0.4566643813786307,0.5096618254863365,1.1542122410044715,0.9923809523809524,0.3911653750696053,0.0,0.9937400530503979,50,536,3286,772091,no_split,wide,individual,1,0.7008779048919678
0,0.0,0.46911464332037744,0.3531401580445941,0.3767547795039793,0.3972409105420108,0.41773655025525336,0.4399339012111189,0.46784860601688755,0.5003018329165876,0.5471906622402349,0.6250166306362002,1.3750105299046465,0.9985185185185185,0.4796455212922053,0.0,0.99688654353562,50,536,3292,772091,no_split,wide,individual,1,0.7101304531097412
1,1.0,0.49012097359049717,0.38000934587192875,0.4030214986885463,0.4228170563405867,0.44339809715651496,0.46529709973687317,0.49000532320704343,0.5211513619214623,0.5623412573029494,0.6324061656195477,1.222178100164791,0.9952631578947368,0.4796455212922053,0.0,0.99688654353562,50,536,3292,772091,no_split,wide,individual,1,0.7101304531097412
0,0.0,0.4657083652506329,0.3603462112244418,0.38613510704431847,0.4074362251519986,0.42712797638279765,0.4480581876380342,0.47076257607978045,0.49768745252388386,0.5327661861062886,0.5921653908408963,1.1682922773322613,0.9992631578947369,0.4691702575009437,0.0,0.9994225721784777,50,536,337788,772091,no_split,wide,individual,1,0.6958096027374268
1,1.0,0.47261402466093877,0.3815320412206674,0.4007946738620812,0.4180028597526,0.43407009662721063,0.4523293323204064,0.47262272218108786,0.49914661115380443,0.532701457857862,0.5910060890322655,1.2325459107062284,0.9995811518324608,0.4691702575009437,0.0,0.9994225721784777,50,536,337788,772091,no_split,wide,individual,1,0.6958096027374268
0,0.0,0.40917812509109636,0.32019847528539586,0.33529724574774217,0.3497046699541784,0.3641222407141156,0.38094919962782336,0.40112690601722084,0.4295328808724119,0.4668192163970585,0.5357219036158359,1.2459326003221067,0.9955080213903743,0.4260233062192661,0.0,0.991505376344086,50,536,3487,772091,no_split,wide,individual,1,0.6977417469024658
1,1.0,0.4430505974136863,0.3418045704716305,0.36322301225125425,0.3825309304908796,0.40115023605509564,0.4198048185592094,0.4437719859864336,0.47197268702900125,0.5102002514058716,0.5712732671217342,1.212113442934528,0.9874594594594595,0.4260233062192661,0.0,0.991505376344086,50,536,3487,772091,no_split,wide,individual,1,0.6977417469024658
0,0.0,0.4152963785091598,0.3306740099564916,0.3466944328667988,0.3623711125153826,0.3789175927847567,0.3966043938306086,0.41693434935857765,0.4405205402765351,0.47184064227232625,0.5240582596081838,1.2300740311857816,0.998848167539267,0.42575787938176013,0.0,0.9979365079365079,50,536,3580,772091,no_split,wide,individual,1,0.6934800148010254
1,1.0,0.43644315567409525,0.36136386145141924,0.3767426468218678,0.39004687268818716,0.40323988134983285,0.41852054027653507,0.43568916700325927,0.4562481331653893,0.4859876289269091,0.5347620413253857,1.1144649057325768,0.9970053475935828,0.42575787938176013,0.0,0.9979365079365079,50,536,3580,772091,no_split,wide,individual,1,0.6934800148010254
0,0.0,0.4887965074724224,0.3545951137748603,0.3786878295579807,0.4003839157527066,0.42350624829954076,0.4492310496319405,0.48163831685586805,0.5217499160925656,0.5782858107762472,0.6755527347806242,1.4401091908885908,0.996043956043956,0.5031106644756402,0.0,0.9920441988950276,50,536,3625,772091,no_split,wide,individual,1,0.690166711807251
1,1.0,0.5175838676677826,0.38716339883377143,0.41306642933873833,0.43537101074806805,0.45925468873210423,0.48513370453078947,0.5147572550486462,0.551589631191684,0.604133499377784,0.689824847418668,1.399385285898708,0.988,0.5031106644756402,0.0,0.9920441988950276,50,536,3625,772091,no_split,wide,individual,1,0.690166711807251
0,0.0,0.5583777598363325,0.4117195734037473,0.4511707920649596,0.4817271794514294,0.5087664056223841,0.5367271794514293,0.5676448106743839,0.6047199478674815,0.650810064002647,0.7277736876972951,1.4552387848611616,0.9992670157068063,0.5634399411997877,0.0,0.9985826771653543,50,536,3754,772091,no_split,wide,individual,1,0.6962215900421143
1,1.0,0.5685287656230507,0.4496238812836692,0.4744470015662806,0.4950006551297907,0.5179379109765921,0.5417508472242245,0.5679752103157708,0.6017664056223841,0.6479640650871966,0.7222038632114032,1.418910091800641,0.9978947368421053,0.5634399411997877,0.0,0.9985826771653543,50,536,3754,772091,no_split,wide,individual,1,0.6962215900421143
0,0.0,0.42316287343498254,0.32796412534196745,0.3452473036046977,0.36155825946538583,0.37815101877807095,0.3961804913158897,0.418631316045252,0.4490231191354939,0.48717273967383273,0.5532808715867393,1.4517797299174031,0.9948148148148148,0.4316881940363982,0.0,0.9937203166226913,50,536,3910,772091,no_split,wide,individual,1,0.7058758735656738
1,1.0,0.44016864452938526,0.3486742215830028,0.36695076631135587,0.38267805589743714,0.3987244238086512,0.41589047089102793,0.4381604022195102,0.46281280734100494,0.5008162771399599,0.5621924320062034,1.4004951553290539,0.9926315789473684,0.4316881940363982,0.0,0.9937203166226913,50,536,3910,772091,no_split,wide,individual,1,0.7058758735656738
0,0.0,0.41131198277693753,0.3289113957836081,0.3437935362386859,0.357482945869263,0.3721348879447165,0.38909980049765275,0.4090543448271238,0.4340567048958762,0.46644117947808533,0.5204440430760882,1.2610998004976528,0.9958947368421053,0.4204391342836727,0.0,0.9926121372031662,50,536,4222,772091,no_split,wide,individual,1,0.7057676315307617
1,1.0,0.42961457759732186,0.3524595201329851,0.3679113903572873,0.3808214576103456,0.3940998004976527,0.40976265509462706,0.4283443753430384,0.44992310349912223,0.47918815409004384,0.5322150657614411,1.0147901534512611,0.9893121693121694,0.4204391342836727,0.0,0.9926121372031662,50,536,4222,772091,no_split,wide,individual,1,0.7057676315307617
0,0.0,0.46522680891564555,0.33618830331386584,0.3570278232082336,0.37697902606647654,0.39822310916343967,0.4236108571022708,0.4557856035764713,0.49598474526579905,0.5529693967746258,0.6483484997752382,1.3808723914849148,0.9894179894179894,0.4832670734659101,0.0,0.9834920634920635,50,536,4264,772091,no_split,wide,individual,1,0.7056763172149658
1,1.0,0.5013073380161746,0.36745292836699867,0.3936404801490928,0.4194267355165094,0.4433044737974415,0.4698155243569476,0.49944515897040076,0.5377253865045996,0.5910145366237645,0.6732299065822246,1.3708223227277185,0.9775661375661375,0.4832670734659101,0.0,0.9834920634920635,50,536,4264,772091,no_split,wide,individual,1,0.7056763172149658
0,0.0,0.4353259747503273,0.3640600729275162,0.37904285811518357,0.39174846405195934,0.40484180452836166,0.41898588494786393,0.43525251346765415,0.4553842924863325,0.4832525767747301,0.5266024085349856,0.9544054084157492,0.9993617021276596,0.44346587886380245,0.0,0.99856,50,536,5281,772091,no_split,wide,individual,1,0.6867377758026123
1,1.0,0.4516493118762801,0.38599622222583096,0.3999148882874312,0.4119487466490345,0.42392837743074363,0.4370471800607004,0.45245872662876685,0.4706952989837567,0.4950499526250321,0.5351363237420593,0.9396952989837567,0.9977540106951872,0.44346587886380245,0.0,0.99856,50,536,5281,772091,no_split,wide,individual,1,0.6867377758026123
0,0.0,0.4807413516033938,0.3689913445286763,0.39667173042576387,0.4183498101841117,0.4391769089921775,0.46212203389513434,0.48730614653222626,0.5165061248745425,0.5536738389797874,0.6152200391034505,1.07405771795189,0.99989417989418,0.48500331139175357,0.0,0.9997866666666667,50,536,5332,772091,no_split,wide,individual,1,0.6998801231384277
1,1.0,0.4893340124670224,0.38753684018262174,0.4096095162298422,0.42895798422240333,0.44867173042576386,0.4699856383239641,0.49269640333523806,0.5202282421773183,0.5571900100345546,0.6160435939052445,1.2050244446095475,0.9996774193548387,0.48500331139175357,0.0,0.9997866666666667,50,536,5332,772091,no_split,wide,individual,1,0.6998801231384277
0,0.0,0.46490035380435285,0.34510659196652455,0.36651029385969186,0.3864465866163628,0.40854836502160513,0.43311745841191795,0.46137087901699086,0.4970539438029772,0.5473394360107331,0.6270545097587165,1.4245632268574817,0.9956842105263158,0.4790820055193924,0.0,0.9944063324538258,50,536,5575,772091,no_split,wide,individual,1,0.6926345825195312
1,1.0,0.4933386924286915,0.3801905176335456,0.4034471802272985,0.4223543016069547,0.44204052889078127,0.46460174100232926,0.4900297909635121,0.5230219589738279,0.5698405642094658,0.6446759857560528,1.3381709895425777,0.9931216931216931,0.4790820055193924,0.0,0.9944063324538258,50,536,5575,772091,no_split,wide,individual,1,0.6926345825195312
0,0.0,0.4654436608512481,0.3477989775056652,0.3700292402395504,0.390897903522541,0.41180529050632064,0.43622026898429483,0.4619352576009209,0.49645188013509844,0.5411624390413807,0.6237493904058388,1.4034416482360434,0.9946448087431694,0.47542994338405714,0.0,0.9926684636118598,50,536,5731,772091,no_split,wide,individual,1,0.690676212310791
1,1.0,0.48515063329631264,0.37146031882552727,0.394754120301201,0.41512814735950204,0.43584136311620497,0.4583886069022347,0.48359214391140853,0.5146090317403136,0.5593003720701102,0.634325343189232,1.398371752940235,0.9907446808510638,0.47542994338405714,0.0,0.9926684636118598,50,536,5731,772091,no_split,wide,individual,1,0.690676212310791
0,0.0,0.44333064765742825,0.3353012736009515,0.35603217883025884,0.37508102371411883,0.39568980530994263,0.41805147601699705,0.4421234537824095,0.4738473432073194,0.5150480564353093,0.5841606818654284,1.2571423668903536,0.997872340425532,0.4580285899792297,0.0,0.9971883289124669,50,536,5761,772091,no_split,wide,individual,1,0.693397045135498
1,1.0,0.4726487654104396,0.37357121340211025,0.39412848907491443,0.4120702789325497,0.4294468199005576,0.44992616442004524,0.4723255166411,0.5007823369313511,0.5386238104916031,0.6008869288363277,1.2621920141557026,0.9965079365079365,0.4580285899792297,0.0,0.9971883289124669,50,536,5761,772091,no_split,wide,individual,1,0.693397045135498
0,0.0,0.4355275731291691,0.31444523841364136,0.3350465225952972,0.35529762230584594,0.3772240812364514,0.40121788556808335,0.4294035402322679,0.46743322668136433,0.5167305355594441,0.6004627405829797,1.3297600038133255,0.9852083333333334,0.4455655418791692,0.0,0.9813541666666666,50,536,5803,772091,no_split,wide,individual,1,0.6974761486053467
1,1.0,0.45560351062916915,0.33672999825848654,0.3602441253038882,0.38124201398910496,0.4013552059937544,0.42362901599922365,0.45026448409793124,0.4864592798278929,0.5328586935472502,0.6112377133442771,1.3115885487358836,0.9775,0.4455655418791692,0.0,0.9813541666666666,50,536,5803,772091,no_split,wide,individual,1,0.6974761486053467
0,0.0,0.5266231304072079,0.3600581859958583,0.3940616833548108,0.42543336593313175,0.4572456844667306,0.49115109208100105,0.5299436744908681,0.574298474238211,0.6340041957698996,0.740186606208237,1.4298608020060748,0.9973958333333334,0.5392288524839968,0.0,0.9961256544502618,50,536,5815,772091,no_split,wide,individual,1,0.6951956748962402
1,1.0,0.5519672663721201,0.4051736840440487,0.4359698777180058,0.46217105646720086,0.48786948059700225,0.5164837651723047,0.5491954655813254,0.5902252786445739,0.6456900070357985,0.7457840876337979,1.434600029688308,0.9948421052631579,0.5392288524839968,0.0,0.9961256544502618,50,536,5815,772091,no_split,wide,individual,1,0.6951956748962402
0,0.0,0.4240973415911478,0.34602282556677905,0.3627592070009556,0.37711844743028233,0.3920266807297091,0.4072276593714247,0.42467574318999335,0.44604945371291455,0.476390309338986,0.5251618071606036,0.947369125934579,0.9998947368421053,0.4380603374140384,0.0,0.99989417989418,50,536,6055,772091,no_split,wide,individual,1,0.6959056854248047
1,1.0,0.45217187574568307,0.37102785567095964,0.3903687822675951,0.4064196067589607,0.4222949781168405,0.43810807373289673,0.4551442670070197,0.47658532612012094,0.5044679723654164,0.5510517340528308,0.9895693819236426,0.9998936170212765,0.4380603374140384,0.0,0.99989417989418,50,536,6055,772091,no_split,wide,individual,1,0.6959056854248047
0,0.0,0.4781278984881299,0.33842938570302733,0.36324865875691775,0.3878129263868674,0.4159478125840687,0.44314938100497575,0.4761911496095212,0.5160463925539952,0.5717976334440832,0.6651745870504684,1.4657976334440832,0.9916756756756757,0.4874199213850215,0.0,0.9887399463806971,50,536,6109,772091,no_split,wide,individual,1,0.6955029964447021
1,1.0,0.4965636673207924,0.3720272336432387,0.39541084910558744,0.4170350559226647,0.4393738455008921,0.46283228383432623,0.490693655046552,0.5257896638924068,0.5759012155297993,0.6655838516840418,1.4073434251657073,0.9858510638297873,0.4874199213850215,0.0,0.9887399463806971,50,536,6109,772091,no_split,wide,individual,1,0.6955029964447021
0,0.0,0.39644805672304834,0.3238149046615926,0.33627188483790993,0.34864434278511375,0.36065063974480327,0.3748468072153428,0.3916325566735438,0.41287611398858115,0.4429834757923285,0.49886559713628525,0.959951140251498,0.9972774869109947,0.4098697452388987,0.0,0.9950913838120105,50,536,6214,772091,no_split,wide,individual,1,0.6946742534637451
1,1.0,0.4232215291270623,0.3383253732243934,0.3572217668630318,0.37281750044210454,0.38876094942112327,0.4058939206506752,0.42560684819358474,0.4479188717304893,0.4791296681097052,0.5296157842015551,1.0113483331300706,0.9929166666666667,0.4098697452388987,0.0,0.9950913838120105,50,536,6214,772091,no_split,wide,individual,1,0.6946742534637451
0,0.0,0.4864890179171987,0.33203851353619757,0.36440741005578403,0.3943278011697553,0.4241247066437231,0.4541905790366497,0.4878577960147506,0.5308721353054542,0.5888546338025064,0.680346173216397,1.43968736441757,0.9972486772486773,0.4969607110388918,0.0,0.9962433862433863,50,536,6253,772091,no_split,wide,individual,1,0.7030184268951416
1,1.0,0.507432404160585,0.37487553913177196,0.40147338278804595,0.4244848800194323,0.44765815043917745,0.4730091878422354,0.5029571531861333,0.5414208692353338,0.5954604538647568,0.6874587187272827,1.4219798621482733,0.9952380952380953,0.4969607110388918,0.0,0.9962433862433863,50,536,6253,772091,no_split,wide,individual,1,0.7030184268951416
0,0.0,0.46950708286933274,0.35606006569242216,0.3826209666235121,0.40544731279136337,0.427475597345722,0.44960819368314575,0.47360492127850995,0.502957508419748,0.5420305013831427,0.6052484464878161,1.3037531440394505,0.998421052631579,0.47381262838666943,0.0,0.9975328083989501,50,536,6262,772091,no_split,wide,individual,1,0.6988139152526855
1,1.0,0.47809563178087866,0.38341850045590814,0.4017965054357477,0.41908198555327975,0.4367046382054416,0.45559758831994185,0.4765646184231703,0.5031167936162212,0.5399126026163931,0.6013033578555296,1.2362861453517633,0.9966492146596858,0.47381262838666943,0.0,0.9975328083989501,50,536,6262,772091,no_split,wide,individual,1,0.6988139152526855
0,0.0,0.5015955935638822,0.383110899703649,0.4095045209683528,0.4332777833438154,0.4571914951328781,0.48013353353028554,0.5077372464902912,0.5392472191397302,0.5813530102854026,0.6442959298173494,1.3989413126609413,1.0,0.5184459619849349,0.0,0.9998947368421053,50,536,6361,772091,no_split,wide,individual,1,0.6992435455322266
1,1.0,0.5352963304059875,0.4279682145268817,0.4534590951901876,0.47327999390314995,0.4933270224451215,0.5156148487800083,0.5394115952722964,0.5672399345182566,0.6054632796927107,0.6682770041431884,1.2535937339661998,0.9997894736842106,0.5184459619849349,0.0,0.9998947368421053,50,536,6361,772091,no_split,wide,individual,1,0.6992435455322266
0,0.0,0.4142190097311464,0.33052844135661086,0.3465977415897047,0.36337016543200623,0.38006493096020866,0.39745992863022256,0.4158326303572682,0.43986078820227625,0.47035573839198325,0.5207896483274338,0.9654520822417485,0.998,0.4221991430459638,0.0,0.996042216358839,50,536,6427,772091,no_split,wide,individual,1,0.6931941509246826
1,1.0,0.4302214992883728,0.36064481658859787,0.3746257378350714,0.38741737406594895,0.3992286693334832,0.41306628820679836,0.4290425642370731,0.44932423334003113,0.47517905643483316,0.5212912369542463,1.2018295844777258,0.9940740740740741,0.4221991430459638,0.0,0.996042216358839,50,536,6427,772091,no_split,wide,individual,1,0.6931941509246826
0,0.0,0.47556574802755097,0.3692136702331101,0.39155180247683175,0.4105709353626682,0.43122263764472174,0.45212999053549885,0.47573438734282303,0.5046809253263546,0.5457687716529497,0.6114609177199859,1.2251270175423927,0.9979787234042553,0.4809378010771964,0.0,0.99744,50,536,6583,772091,no_split,wide,individual,1,0.6966550350189209
1,1.0,0.48633858168325705,0.392132963528605,0.40976917929339973,0.4268304287823022,0.4438025434314167,0.46266827971413,0.48477933427197767,0.5114605751477859,0.5474405514528516,0.6112466620136618,1.1458685775905821,0.9968983957219252,0.4809378010771964,0.0,0.99744,50,536,6583,772091,no_split,wide,individual,1,0.6966550350189209
0,0.0,0.46043435459984045,0.3422743480543568,0.3654720998915709,0.386371059323159,0.4077414198069774,0.43099683058660165,0.4578020482796442,0.4917401604721586,0.5396097779784217,0.6180238707285237,1.3353415407092126,0.993968253968254,0.4680129619619772,0.0,0.9911764705882353,50,536,6634,772091,no_split,wide,individual,1,0.7020576000213623
1,1.0,0.47575543110491697,0.36691042504337695,0.3881824800148628,0.40663020526786486,0.42662225994423475,0.44841066584826217,0.4733926290435273,0.5046212645237639,0.5473771615540909,0.6167535206213539,1.3503903923521743,0.9883243243243244,0.4680129619619772,0.0,0.9911764705882353,50,536,6634,772091,no_split,wide,individual,1,0.7020576000213623
0,0.0,0.46571198311490597,0.3600749092263656,0.38229075715324934,0.40243389953324304,0.42340082212154095,0.4459806265931149,0.47027757600124137,0.49915722858343226,0.5352073856373399,0.5947285082574344,1.1169733488973401,0.99875,0.47332952499915315,0.0,0.9974412532637076,50,536,6844,772091,no_split,wide,individual,1,0.6986873149871826
1,1.0,0.48098694930164243,0.3974753558625464,0.41379985573664635,0.4282431872762792,0.44397334889734025,0.4602013099430207,0.4787788511152297,0.5032385555782835,0.5366378510252673,0.5922060966600539,1.1865056787619532,0.9961256544502618,0.47332952499915315,0.0,0.9974412532637076,50,536,6844,772091,no_split,wide,individual,1,0.6986873149871826
0,0.0,0.4727285211147085,0.3409860801407156,0.3654392740778969,0.38696985772629794,0.4104570840243427,0.43701929531670675,0.4671337444190076,0.507490301675498,0.5587166060035601,0.6552458555862332,1.3716150482210974,0.9986315789473684,0.4936046197644743,0.0,0.9976963350785341,50,536,7624,772091,no_split,wide,individual,1,0.6961245536804199
1,1.0,0.5142632590533049,0.3761518246343088,0.4080192953167067,0.4341130998863353,0.4604901671598614,0.48820061558815603,0.5191183997357786,0.5543909906754413,0.6033313893957817,0.6812947516869456,1.309103666513225,0.9967708333333334,0.4936046197644743,0.0,0.9976963350785341,50,536,7624,772091,no_split,wide,individual,1,0.6961245536804199
0,0.0,0.41926668090245484,0.3267853371155604,0.34226882610655507,0.35744101564127667,0.37318661734647435,0.391546887443972,0.4134015011732299,0.4417126246072722,0.4792026221368684,0.5476429143775627,1.2401301759942922,0.9895833333333334,0.4291047459111809,0.0,0.9861780104712042,50,536,7756,772091,no_split,wide,individual,1,0.7006852626800537
1,1.0,0.4390463694989461,0.3444204927248292,0.36218661734647434,0.3793751531014063,0.3962376209540256,0.41523189999352866,0.43724864704748867,0.46460915728348123,0.5006521188456142,0.5666503578141184,1.2568192773241693,0.9827368421052631,0.4291047459111809,0.0,0.9861780104712042,50,536,7756,772091,no_split,wide,individual,1,0.7006852626800537
0,0.0,0.4321511045382457,0.31937282487658925,0.3374987118063435,0.35527426837311993,0.3743362690861574,0.3972235758270283,0.423763769394363,0.45827569706626675,0.5091172865784263,0.5958506186107119,1.4445659190741862,0.9896808510638297,0.4441731112691794,0.0,0.9855227882037534,50,536,7768,772091,no_split,wide,individual,1,0.7057294845581055
1,1.0,0.4563900694606148,0.34450078542247703,0.36712449082847287,0.38690938695012905,0.40658600788497007,0.42836904906170103,0.45374558446059027,0.4840920094433712,0.5283362690861575,0.6021881068239339,1.4449227415540054,0.9812972972972973,0.4441731112691794,0.0,0.9855227882037534,50,536,7768,772091,no_split,wide,individual,1,0.7057294845581055
0,0.0,0.4252668089815266,0.30411535695019126,0.3243858694661906,0.34478317339394243,0.36655341492709703,0.3902410638117739,0.4183744516304453,0.4580937444380475,0.5103823864346289,0.5923367252778992,1.2029428751081361,0.9920418848167539,0.4383964424893801,0.0,0.99,50,536,7807,772091,no_split,wide,individual,1,0.7001094818115234
1,1.0,0.4515260759972334,0.3338230512826847,0.3573618083029873,0.3785742638035869,0.3998489335953066,0.4225129201037594,0.4492991804691032,0.48191228246346646,0.5278291829299873,0.6067286581000477,1.3564945739035406,0.987958115183246,0.4383964424893801,0.0,0.99,50,536,7807,772091,no_split,wide,individual,1,0.7001094818115234
0,0.0,0.40524460869848367,0.3199162620985794,0.3335873040140516,0.347515670391616,0.36224922775901264,0.37979332856291736,0.40034667819742603,0.4259411246436857,0.46391800161518937,0.5274993911436278,1.2360625135818928,0.9938541666666667,0.414861848691922,0.0,0.989501312335958,50,536,7813,772091,no_split,wide,individual,1,0.7001428604125977
1,1.0,0.4246317432884308,0.3375756884983917,0.3558436460740829,0.3715154253503926,0.3869889271503603,0.40411073786601115,0.4244976730943045,0.4477353602726224,0.4809248904722397,0.5369382720649221,1.1361808968619704,0.9850793650793651,0.414861848691922,0.0,0.989501312335958,50,536,7813,772091,no_split,wide,individual,1,0.7001428604125977
0,0.0,0.4330851806841072,0.3518433318710689,0.3698111273235265,0.3846122084227469,0.4005015667174732,0.41651174463891627,0.4355209066007881,0.4574071632057867,0.48796252610051,0.5353162395841079,1.1250998504769234,0.9997905759162303,0.43648455241185585,0.0,0.999738219895288,50,536,7828,772091,no_split,wide,individual,1,0.7057158946990967
1,1.0,0.43988392413960453,0.3601011900879704,0.3771452440303591,0.3925015667174732,0.40798667027690166,0.4245142324166046,0.44259142420991326,0.46450387376059965,0.49269611274147945,0.5371537782049943,1.1200998504769233,0.9996858638743455,0.43648455241185585,0.0,0.999738219895288,50,536,7828,772091,no_split,wide,individual,1,0.7057158946990967
0,0.0,0.5542223745679263,0.39703903668528623,0.42545506624219387,0.451276316773521,0.4786556947434202,0.5100793212535677,0.5489759893616998,0.5959294916709802,0.660910716208327,0.7684741406879833,1.487449227711413,0.9905820105820106,0.5645792435874016,0.0,0.987659574468085,50,536,7840,772091,no_split,wide,individual,1,0.7109150886535645
1,1.0,0.5750468812594918,0.4221772389654356,0.45221145683566666,0.47834649829585146,0.505373243940872,0.5363328336658005,0.5688912353358698,0.6150446806211823,0.6757699653721264,0.7814322311656947,1.5001931563010313,0.9847058823529412,0.5645792435874016,0.0,0.987659574468085,50,536,7840,772091,no_split,wide,individual,1,0.7109150886535645
0,0.0,0.4667102640475244,0.3744227165167709,0.39829199345000477,0.4173713772865184,0.43486012185960227,0.4532661060442574,0.47243919544384444,0.49624029284582666,0.5285796024464642,0.5774803844792491,0.9498989285735799,1.0,0.47606869336689606,0.0,1.0,50,536,7924,772091,no_split,wide,individual,1,0.7076671123504639
1,1.0,0.48542712268626786,0.40057854597988396,0.42156683136247053,0.43874153504489555,0.4549884847624174,0.47213495591652455,0.49130054675956064,0.5136056454543402,0.5420900164604607,0.5863614758218402,1.0313546124304183,1.0,0.47606869336689606,0.0,1.0,50,536,7924,772091,no_split,wide,individual,1,0.7076671123504639
0,0.0,0.46521928336263224,0.3601677345592874,0.3839881990237883,0.4037477318794465,0.42466138281279747,0.4463928399084498,0.46931503827284243,0.4975875098572471,0.5345643680508249,0.5949172832226752,1.4268306816417116,1.0,0.47469136453816163,0.0,0.999893899204244,50,536,7939,772091,no_split,wide,individual,1,0.6997823715209961
1,1.0,0.4842138291241992,0.3896568497405622,0.41091159046476666,0.42969915364689426,0.44794939635575176,0.46689451825995254,0.4886360330412028,0.5123953434415082,0.5454527487748202,0.6008998235595165,1.0938774460551384,0.9997872340425532,0.47469136453816163,0.0,0.999893899204244,50,536,7939,772091,no_split,wide,individual,1,0.6997823715209961
0,0.0,0.466658015148902,0.33692209705941234,0.35827398196810023,0.37863453014073906,0.4004444385073166,0.4258040710121205,0.45725742078942705,0.49612833570995307,0.552561285091424,0.6505085889953762,1.4480062264514597,0.9897752808988765,0.48194899543181285,0.0,0.9831404958677686,50,536,8026,772091,no_split,wide,individual,1,0.6999998092651367
1,1.0,0.4966613980823973,0.3656006275355815,0.39148059589156337,0.413869875100044,0.43784391377257553,0.4634118839144834,0.4913357920935195,0.5286292326712609,0.5819022967004185,0.672634981096557,1.4604996708371454,0.9767567567567568,0.48194899543181285,0.0,0.9831404958677686,50,536,8026,772091,no_split,wide,individual,1,0.6999998092651367
0,0.0,0.4731359578904799,0.36107676624186064,0.3822481401148876,0.40355809848453517,0.42423465489851786,0.44566600458633776,0.4735918974422056,0.5057250556894278,0.5465782538629472,0.6185699142385725,1.2720601371865785,0.9945263157894737,0.4804011684167956,0.0,0.9929473684210526,50,536,808,772091,no_split,wide,individual,1,0.6993155479431152
1,1.0,0.48766637894311143,0.3882893445010684,0.40723933424341807,0.4241026205184917,0.4418089712415964,0.4608386007381243,0.4840023296867365,0.5126139741427741,0.5532381555656221,0.6226188991238892,1.29461177862482,0.9913684210526316,0.4804011684167956,0.0,0.9929473684210526,50,536,808,772091,no_split,wide,individual,1,0.6993155479431152
0,0.0,0.4513451816436693,0.33107128975139594,0.3500866591862635,0.37029616809947136,0.391139185114795,0.415165093178641,0.44549201020496004,0.48298617000820354,0.5325383345628097,0.6187375302773491,1.4357033297005408,0.9751832460732984,0.45564864944403294,0.0,0.9701827676240209,50,536,8311,772091,no_split,wide,individual,1,0.7043299674987793
1,1.0,0.459929703349603,0.3436326547281126,0.36462125240974086,0.38454846186239167,0.4061747373214751,0.42898982872880087,0.4566015776177141,0.4889934874493982,0.5382105244783257,0.6167050170007129,1.3077130723263375,0.9652083333333333,0.45564864944403294,0.0,0.9701827676240209,50,536,8311,772091,no_split,wide,individual,1,0.7043299674987793
0,0.0,0.47515302459474534,0.3671108290186803,0.3877292883386481,0.40704810315402706,0.42620491294863133,0.4472272532303525,0.47216710924721417,0.5040474924311412,0.5480290449396008,0.615115477638229,1.42916139495062,0.994375,0.48342338835135923,0.0,0.993968253968254,50,536,833,772091,no_split,wide,individual,1,0.7015905380249023
1,1.0,0.49196053803560563,0.38919331468771945,0.4093365427821623,0.42750259319649053,0.4451573152141679,0.4656666067770483,0.4896341946132361,0.5198509760219946,0.5616057114269768,0.6298457638147722,1.4930365974261648,0.9935483870967742,0.48342338835135923,0.0,0.993968253968254,50,536,833,772091,no_split,wide,individual,1,0.7015905380249023
0,0.0,0.5903276587204528,0.37046896809528285,0.4103917013330687,0.448124113413582,0.487640770695252,0.5309545916771209,0.586877222052808,0.6531026049535192,0.7460177649990433,0.8989940396489385,1.4758465898055162,0.9867391304347826,0.6017073426217454,0.0,0.9846486486486487,50,536,837,772091,no_split,wide,individual,1,0.7013578414916992
1,1.0,0.612964664330551,0.4057410435820689,0.44792617384470806,0.48522581475554905,0.5242387366817407,0.565142117231998,0.6153699040880213,0.6725569141424224,0.7524869160321148,0.8895819673703454,1.4706496862355207,0.9825806451612903,0.6017073426217454,0.0,0.9846486486486487,50,536,837,772091,no_split,wide,individual,1,0.7013578414916992
0,0.0,0.40360690678778144,0.3139086565387903,0.33171782530736293,0.34818260938977447,0.364854041667149,0.3825683742463506,0.4035704697581646,0.4299197660738355,0.46415461233521954,0.5215458368797061,1.0982353123877215,0.998848167539267,0.4135194262146208,0.0,0.998421052631579,50,536,8446,772091,no_split,wide,individual,1,0.6957769393920898
1,1.0,0.4235368400269293,0.3414802469410569,0.3591635314930354,0.37366492129754986,0.3879341877589366,0.40497398601404133,0.4236888053437383,0.44619945392711163,0.47784889027993865,0.5304092496737329,0.9801833824976902,0.997989417989418,0.4135194262146208,0.0,0.998421052631579,50,536,8446,772091,no_split,wide,individual,1,0.6957769393920898
0,0.0,0.4346549587450565,0.3334966639890334,0.3525915521092463,0.369480985825072,0.3874908768655023,0.4074275978731224,0.43045503715901867,0.4618598319322341,0.49999953089518817,0.5716443844821053,1.3956730446425814,0.9967195767195767,0.4448915823519461,0.0,0.9941489361702127,50,536,845,772091,no_split,wide,individual,1,0.6994819641113281
1,1.0,0.4552376885642569,0.3525271708597551,0.3739353990660561,0.3925004417792928,0.41120614734141453,0.4311602852918169,0.45353637846936085,0.4836678246171729,0.5224476083354499,0.5903550155965334,1.251566307484517,0.9915508021390375,0.4448915823519461,0.0,0.9941489361702127,50,536,845,772091,no_split,wide,individual,1,0.6994819641113281
0,0.0,0.5093983443960035,0.3810730511160866,0.40454202569853365,0.42766396433731735,0.4505419027019289,0.4765525625901372,0.5060480631944104,0.5440825223663442,0.5960822449218938,0.6817848251136334,1.479371227919898,0.9971727748691099,0.5182349919573153,0.0,0.9962631578947369,50,536,8521,772091,no_split,wide,individual,1,0.7006092071533203
1,1.0,0.5271651490166303,0.4023077794739916,0.4270699246985198,0.4496913544769308,0.4738579504268964,0.49946892775487134,0.5266640978295688,0.5618558350899717,0.6084017885778347,0.6868352267803707,1.3719195088471898,0.9953439153439153,0.5182349919573153,0.0,0.9962631578947369,50,536,8521,772091,no_split,wide,individual,1,0.7006092071533203
0,0.0,0.5815854259299139,0.421398071310092,0.45538402204195505,0.48401008596972594,0.512895353508761,0.545894922080558,0.5841461889598666,0.6285868927560544,0.6873060285335483,0.7894874639477173,1.4609773955522753,0.9982608695652174,0.5833818506610966,0.0,0.9975268817204301,50,536,8704,772091,no_split,wide,individual,1,0.7121737003326416
1,1.0,0.5851400535894883,0.43538583192223795,0.4661895103013484,0.49327482373801346,0.5205831337437207,0.5501101939546996,0.5858803432344509,0.6282643533426393,0.6820438055317553,0.7828955552346167,1.501862565679332,0.9968085106382979,0.5833818506610966,0.0,0.9975268817204301,50,536,8704,772091,no_split,wide,individual,1,0.7121737003326416
0,0.0,0.4802383353267273,0.36140443519440546,0.39444606811713123,0.4199116694796138,0.443322903010849,0.466394176020948,0.49226001119121826,0.521320776607086,0.558040081362114,0.6149987589296564,1.1087004470866157,1.0,0.48311972692887134,0.0,1.0,50,536,8755,772091,no_split,wide,individual,1,0.7128212451934814
1,1.0,0.48604887640287425,0.3841524695572958,0.4082339905550153,0.42746587723439755,0.44793931610808363,0.46887730444720577,0.4921301699015815,0.5198361574657874,0.5543417055932066,0.6102665838936832,1.0467004470866157,1.0,0.48311972692887134,0.0,1.0,50,536,8755,772091,no_split,wide,individual,1,0.7128212451934814
0,0.0,0.4573991067211192,0.3407943833397217,0.3626428972894121,0.3836476765928534,0.4059352996787069,0.430105887020814,0.45862378007564697,0.4910264924030577,0.535193699647101,0.6100978373595068,1.2496476765928535,0.9966666666666667,0.4674176483877859,0.0,0.9947395833333333,50,536,8785,772091,no_split,wide,individual,1,0.7091810703277588
1,1.0,0.47743619005445254,0.3723849012963215,0.39196176941435446,0.40988455905731686,0.4283849012963215,0.449193699647101,0.475013719772087,0.5049251970355649,0.5459151485128333,0.6202529353164973,1.3400627720461202,0.9928125,0.4674176483877859,0.0,0.9947395833333333,50,536,8785,772091,no_split,wide,individual,1,0.7091810703277588
0,0.0,0.43335973721404947,0.3110213382788878,0.33320309375078483,0.3541121859796748,0.3758408809352431,0.40106988980822966,0.42978584500014777,0.4676016396396089,0.5182509206759031,0.597049686235521,1.3325418942768525,0.9968253968253968,0.4454260597548548,0.0,0.9947480106100796,50,536,8788,772091,no_split,wide,individual,1,0.7144744396209717
1,1.0,0.4575565648623665,0.3418110311253309,0.36536919019364134,0.38616267203998006,0.40651113417782675,0.42892416834318015,0.45625520004384157,0.4901419356882478,0.5340757218179055,0.6071321513654602,1.2624777337453397,0.9926595744680851,0.4454260597548548,0.0,0.9947480106100796,50,536,8788,772091,no_split,wide,individual,1,0.7144744396209717
0,0.0,0.4669942903193965,0.3501464716164414,0.36957212921274296,0.38934393742943024,0.4090514248477438,0.43213274730876117,0.4589515897793364,0.49211906488847,0.5465480856136833,0.6295374763473361,1.4186481209323678,0.9911111111111112,0.4811999089167172,0.0,0.9871276595744681,50,536,916,772091,no_split,wide,individual,1,0.711118221282959
1,1.0,0.49555745926374184,0.36658954965407414,0.3921071831498957,0.4155905226790719,0.4400284429511877,0.46595031023861255,0.4960026918222512,0.5320028567538437,0.5784171632486262,0.6643352524601959,1.4402495136404398,0.9831016042780749,0.4811999089167172,0.0,0.9871276595744681,50,536,916,772091,no_split,wide,individual,1,0.711118221282959
0,0.0,0.4211447001156535,0.32341563331175716,0.34053865895207514,0.35624162881552685,0.37288819264548123,0.39172984941545896,0.4149629598253794,0.4459143259968387,0.4863997393325458,0.5564357532048874,1.2322108082653835,0.9961052631578947,0.4347635090671662,0.0,0.9920209973753281,50,536,985,772091,no_split,wide,individual,1,0.7090821266174316
1,1.0,0.44831101535401124,0.3453280820056562,0.36518205304909473,0.384009861610401,0.4035374584975969,0.4236345401365933,0.44801380635522353,0.4768872626026561,0.5149438794534766,0.5809091425752962,1.2542216770907422,0.987958115183246,0.4347635090671662,0.0,0.9920209973753281,50,536,985,772091,no_split,wide,individual,1,0.7090821266174316
0,0.0,0.4563500569694432,0.3464677995799384,0.3657383142379064,0.3842553950105955,0.403808121475,0.4254028966896608,0.4501964287056677,0.481395276374087,0.5268101298800855,0.6100711242962109,1.3748629280290434,0.9982439024390244,0.47563578316137844,0.0,0.9963316582914573,50,536,275,772091,no_split,narrow,individual,1,0.7097043991088867
1,1.0,0.4961206218626568,0.37664281099187175,0.40220289916482477,0.4254986672057944,0.44825007083790713,0.4722531963986864,0.49902580147534265,0.5316171453988867,0.5752129586115972,0.6483634468614707,1.4027868303057658,0.994300518134715,0.47563578316137844,0.0,0.9963316582914573,50,536,275,772091,no_split,narrow,individual,1,0.7097043991088867
0,0.0,0.4790077137400309,0.3625845898421672,0.38546692965503543,0.4079823543883959,0.43031729759766496,0.45481793817721494,0.48103843356936427,0.5120351138629188,0.555346353712962,0.6278584544440395,1.217751251015081,0.9956190476190476,0.48631673249904955,0.0,0.9941414141414141,50,536,808,772091,no_split,narrow,individual,1,0.70949387550354
1,1.0,0.49456885045278054,0.3980336911315848,0.41585270310328615,0.4320875765200737,0.4494566275946043,0.4692938560227181,0.4915037646153924,0.5193230826387265,0.5601032991893857,0.6264736881018892,1.4835096286118015,0.9924731182795699,0.48631673249904955,0.0,0.9941414141414141,50,536,808,772091,no_split,narrow,individual,1,0.70949387550354
0,0.0,0.4739413923561724,0.3604283866174098,0.37945079158658696,0.39744632677175523,0.41772777575172587,0.44106086283798684,0.46861548384993845,0.5026977655797545,0.5482324766591113,0.6317326257401354,1.457067457245735,0.9971,0.49350492568950577,0.0,0.9955733333333333,50,536,833,772091,no_split,narrow,individual,1,0.7110395431518555
1,1.0,0.5158632494990295,0.3970841085298927,0.421718734501692,0.44375003687580267,0.465431273967466,0.4889888696028001,0.5151960546227276,0.5488698176476824,0.5950822362112211,0.6687649120394847,1.389054268430239,0.9938285714285714,0.49350492568950577,0.0,0.9955733333333333,50,536,833,772091,no_split,narrow,individual,1,0.7110395431518555
0,0.0,0.5856816928366924,0.3571225910450025,0.39739367194430564,0.4342356494860016,0.4762853066044064,0.5226642835144591,0.5823330033930237,0.6535450163152831,0.7511624682197554,0.9131456079270481,1.4538867812308822,0.9906806282722513,0.6100546801932702,0.0,0.9866489361702128,50,536,837,772091,no_split,narrow,individual,1,0.7113947868347168
1,1.0,0.635218142815467,0.40961408795271376,0.4571217714801648,0.4982917982928535,0.5401997598002471,0.5872108658605433,0.6389194903310605,0.7033462042987432,0.794862211611901,0.9368518106401135,1.4520131145469213,0.9824864864864865,0.6100546801932702,0.0,0.9866489361702128,50,536,837,772091,no_split,narrow,individual,1,0.7113947868347168
0,0.0,0.4421178913378627,0.33520091460699136,0.3533478967396402,0.3717430262359299,0.3908161410059468,0.41328312684182156,0.43855319035357443,0.4707361844069933,0.5157495609541495,0.5895947375737514,1.2298568277020836,0.9957291666666667,0.4519170340517665,0.0,0.9898395721925134,50,536,845,772091,no_split,narrow,individual,1,0.712592363357544
1,1.0,0.4622545912005001,0.3628785387209898,0.3826888928312613,0.3998776672253101,0.4173676517840955,0.4371069967986157,0.4587662700238636,0.48680045306032804,0.5260084547653352,0.5916294944436402,1.257059283017046,0.9836263736263736,0.4519170340517665,0.0,0.9898395721925134,50,536,845,772091,no_split,narrow,individual,1,0.712592363357544
0,0.0,0.4805589920050784,0.3547286154986691,0.37523763808977545,0.3956443689171323,0.4167993808145786,0.44115220590474363,0.47081824341966,0.5098274805884343,0.5647360020540549,0.6580931844560206,1.4215391059095512,0.9943016759776536,0.5035219055808028,0.0,0.9901092896174863,50,536,916,772091,no_split,narrow,individual,1,0.7133450508117676
1,1.0,0.5255024485222713,0.38381953312283557,0.41358210950187063,0.43990995852258635,0.466375157432943,0.49408550499831005,0.52536303788824,0.5685460577880818,0.6189051219095815,0.7033625598960168,1.4523811023957702,0.986096256684492,0.5035219055808028,0.0,0.9901092896174863,50,536,916,772091,no_split,narrow,individual,1,0.7133450508117676
0,0.0,0.41548806952423073,0.32954897324552745,0.343093498349639,0.3565680172515612,0.37013374594218534,0.3860989696517799,0.40547015793511565,0.4315546864473376,0.46859533249366797,0.540530963762794,1.109621187579487,0.9889265536723164,0.4363732782881828,0.0,0.9774525745257453,50,536,985,772091,no_split,narrow,individual,1,0.7203059196472168
1,1.0,0.45562683011745103,0.34909422090709263,0.3705043525144116,0.39109741758123395,0.41126254775819393,0.431946529663794,0.45570406463381347,0.4843996334240915,0.5231387393473016,0.5925724578859458,1.3311337459421853,0.966875,0.4363732782881828,0.0,0.9774525745257453,50,536,985,772091,no_split,narrow,individual,1,0.7203059196472168
0,0.0,0.42124879486572475,0.3298735609998446,0.3432958034411939,0.35708902675190646,0.37129305201095375,0.3877303714608391,0.4087737276450123,0.43717488426053025,0.4803172700138679,0.5547674022685378,1.3488087952431655,0.9939772727272728,0.4522204288370166,0.0,0.9801052631578947,50,536,1108,772091,no_split,narrow,individual,1,0.7080693244934082
1,1.0,0.47894105422401356,0.36114299305921427,0.38559469280660474,0.4090034302302733,0.43117002222949646,0.4552959724663268,0.4826146750425441,0.5146278772810442,0.5582561450804474,0.6247094741520562,1.3396495848490007,0.9681372549019608,0.4522204288370166,0.0,0.9801052631578947,50,536,1108,772091,no_split,narrow,individual,1,0.7080693244934082
0,0.0,0.46997657365607665,0.3362069621939209,0.35826678238278553,0.37903278924374934,0.4025926365642178,0.42879149265771427,0.46070601382536325,0.5015879996778978,0.5593171196952622,0.66207256860193,1.4367177218264733,0.9943718592964824,0.4911104417681357,0.0,0.9893366093366094,50,536,1507,772091,no_split,narrow,individual,1,0.7128515243530273
1,1.0,0.5113298636638076,0.3705919439467272,0.3986030227326214,0.42498490472347183,0.4520423632728068,0.4790257438325841,0.5102091137301171,0.5496842801729876,0.6040173269902364,0.6956051246227422,1.4377071490687934,0.9845192307692308,0.4911104417681357,0.0,0.9893366093366094,50,536,1507,772091,no_split,narrow,individual,1,0.7128515243530273
0,0.0,0.4735006130423607,0.3450366247957655,0.3696064954827328,0.392940023909752,0.41707676805063454,0.44281115045678876,0.47317378933371185,0.5096242420269042,0.5594634973643334,0.6439488536760726,1.470955267587255,0.9958064516129033,0.4835392619192396,0.0,0.9941361256544503,50,536,1538,772091,no_split,narrow,individual,1,0.711341142654419
1,1.0,0.49306573483301247,0.3811630271307969,0.4030023004607633,0.4232118797257444,0.44250371201816036,0.4640178958971323,0.48905846659376256,0.5208146444599904,0.5653697075980888,0.6424650436515638,1.4776488351599428,0.9925510204081632,0.4835392619192396,0.0,0.9941361256544503,50,536,1538,772091,no_split,narrow,individual,1,0.711341142654419
0,0.0,0.47400018090836327,0.3661725060088431,0.3840416719880964,0.4004886731604673,0.4173555518027067,0.43703576610429873,0.4620965416588187,0.4940777807853524,0.5434557057388598,0.6307192217757799,1.4226190922580702,0.9980851063829788,0.5074309244265588,0.0,0.9936065573770492,50,536,1582,772091,no_split,narrow,individual,1,0.7086038589477539
1,1.0,0.5427397996030799,0.4164518869536988,0.44386458662683437,0.4675047760292299,0.4928187999031375,0.5176443041820769,0.5459810446578128,0.5794183956660376,0.6270406513637935,0.698850954638007,1.4725650313471432,0.9888764044943821,0.5074309244265588,0.0,0.9936065573770492,50,536,1582,772091,no_split,narrow,individual,1,0.7086038589477539
0,0.0,0.44691781295290317,0.3450776956658949,0.3588029488584992,0.37296768576999934,0.38703059053664135,0.4040780497571266,0.42720648363050573,0.46107190009348714,0.5119123591935462,0.6086922980141591,1.3631966415221612,0.9948743718592965,0.48938805866769264,0.0,0.979047619047619,50,536,1583,772091,no_split,narrow,individual,1,0.7059516906738281
1,1.0,0.5316459531539083,0.40340511155673264,0.43224286016195396,0.4572312462170711,0.4812927863592311,0.5066823375739415,0.5348983864174928,0.5686749986416607,0.6170800721088086,0.6910745553255314,1.3682212467930226,0.9633,0.48938805866769264,0.0,0.979047619047619,50,536,1583,772091,no_split,narrow,individual,1,0.7059516906738281
0,0.0,0.5594964041052735,0.3965700320944522,0.4240179295974402,0.4497887045046097,0.4779188835351166,0.5097338604304139,0.5469979232286533,0.5975086637738843,0.669269447229889,0.7942649955048664,1.5365175274785092,0.9916939890710382,0.5785101980162806,0.0,0.9872527472527473,50,536,1597,772091,no_split,narrow,individual,1,0.7140066623687744
1,1.0,0.5977340890975749,0.432910809312568,0.4660770126872635,0.49651486836712183,0.5272223596647791,0.5585800385155986,0.5972121624656175,0.641473679617313,0.7042473019387216,0.8079052769881179,1.4940837495359325,0.9827624309392266,0.5785101980162806,0.0,0.9872527472527473,50,536,1597,772091,no_split,narrow,individual,1,0.7140066623687744
0,0.0,0.41914095835793186,0.3251031305450477,0.3408266200881942,0.355495095782323,0.37162995784667635,0.3891092637155279,0.4111514248953433,0.4393213920661025,0.47758676433312885,0.550444574546131,1.3654441633833323,0.9931147540983607,0.4425397010901724,0.0,0.98784,50,536,1601,772091,no_split,narrow,individual,1,0.7077217102050781
1,1.0,0.464841627756839,0.3459342044186933,0.36987091495446645,0.3911094226972074,0.41320635487438534,0.43844416338333236,0.4656051990680555,0.49844539687172834,0.5445915602487279,0.6169101325456464,1.3584441633833324,0.9828125,0.4425397010901724,0.0,0.98784,50,536,1601,772091,no_split,narrow,individual,1,0.7077217102050781
0,0.0,0.5106508894203139,0.3563240110274761,0.3812965533682479,0.4076119407956531,0.43450962223349493,0.4660593866645332,0.5050182329954122,0.5511742850804758,0.6160280531128777,0.7239260204321468,1.4568495176387817,0.9975247524752475,0.5349854885899082,0.0,0.9952150537634409,50,536,1614,772091,no_split,narrow,individual,1,0.7063908576965332
1,1.0,0.5639007181914263,0.41363135160193304,0.44594888575800445,0.4724915895223003,0.5001162194972012,0.529069999524628,0.5634616758341205,0.6033825854711233,0.6633415209079019,0.7595366712050882,1.4719922136919898,0.9924705882352941,0.5349854885899082,0.0,0.9952150537634409,50,536,1614,772091,no_split,narrow,individual,1,0.7063908576965332
0,0.0,0.5009737170964806,0.3567317356807273,0.3867842306221113,0.4149463357680244,0.44098785359563014,0.4717044116327491,0.5060043286671599,0.5457320425534482,0.5988089492269183,0.6846241763398636,1.42600432866716,1.0,0.5264097301816799,0.0,0.9997894736842106,50,536,1638,772091,no_split,narrow,individual,1,0.7122509479522705
1,1.0,0.5495449983647002,0.4167207339105092,0.4490871648812828,0.47445989105057146,0.499792767843102,0.5256117453053069,0.5555849987796989,0.5895871191859495,0.6370406434147101,0.7085842143431488,1.3961213315673857,0.9995979899497487,0.5264097301816799,0.0,0.9997894736842106,50,536,1638,772091,no_split,narrow,individual,1,0.7122509479522705
0,0.0,0.4138726905206531,0.3220232060756252,0.3366247825646147,0.3500018654031136,0.3664265792479903,0.3836819076332172,0.40504505091997783,0.4319433706169035,0.47181871717554524,0.5453454477553856,1.4416108080749863,0.9901020408163266,0.42951535513366806,0.0,0.9823180592991914,50,536,1657,772091,no_split,narrow,individual,1,0.7001607418060303
1,1.0,0.4470351395002449,0.3390232060756252,0.36168190763321717,0.3811471618539666,0.40141963450935575,0.42199644741219466,0.44713862867891674,0.4766615817778934,0.5167047825265354,0.5834273450732124,1.2690156553978347,0.9736,0.42951535513366806,0.0,0.9823180592991914,50,536,1657,772091,no_split,narrow,individual,1,0.7001607418060303
0,0.0,0.46973549914555407,0.3638323386925251,0.38156240288970805,0.3976648914765847,0.4156665547153081,0.43671999790625127,0.46291578196438715,0.495847506484836,0.5429639211409477,0.6176977505145743,1.5032704280611728,0.9968205128205129,0.491719582706663,0.0,0.9941624365482233,50,536,1663,772091,no_split,narrow,individual,1,0.6957156658172607
1,1.0,0.5132617751409155,0.4069759271137086,0.42910683962570956,0.4488998110289989,0.46797721634089107,0.48789981963257334,0.5129588615727971,0.541960500321678,0.5819435526842458,0.6511485947001525,1.4642910799717375,0.9915577889447236,0.491719582706663,0.0,0.9941624365482233,50,536,1663,772091,no_split,narrow,individual,1,0.6957156658172607
0,0.0,0.5154988008569119,0.3712159398988824,0.39768681174203674,0.4227739004304904,0.4490821030759645,0.47718480286095843,0.5099771051965135,0.5524790630035374,0.6096732817823202,0.7112611600004497,1.3975341898533058,0.9988950276243094,0.5378041599729341,0.0,0.9978453038674033,50,536,1761,772091,no_split,narrow,individual,1,0.6985635757446289
1,1.0,0.5601095190889561,0.41355027860887433,0.44592643002416843,0.47542904593918645,0.5030368998245511,0.5309413057590423,0.563474930527055,0.6035603985305639,0.654707586125614,0.7408110529734121,1.4556887590772134,0.9967955801104973,0.5378041599729341,0.0,0.9978453038674033,50,536,1761,772091,no_split,narrow,individual,1,0.6985635757446289
0,0.0,0.47041357270560036,0.338330599342513,0.3607528898115613,0.3819254668522269,0.4042988581266079,0.4299982445239641,0.45945493186935543,0.49953998606830435,0.5561970435934928,0.6561854863869818,1.3788938616275368,0.9905434782608695,0.48700503510278015,0.0,0.9849189189189189,50,536,1768,772091,no_split,narrow,individual,1,0.6938431262969971
1,1.0,0.503418094678485,0.3654071945737291,0.39375296173411145,0.4178911422792284,0.4427526021213605,0.4706972557911956,0.5029714631556649,0.5414296436912618,0.5938990828905272,0.6828755655969856,1.4571422062426986,0.9793548387096774,0.48700503510278015,0.0,0.9849189189189189,50,536,1768,772091,no_split,narrow,individual,1,0.6938431262969971
0,0.0,0.3936871123648894,0.29514689572625114,0.3088709144784736,0.32379251080685356,0.34007540918566875,0.35928216985779005,0.3808769191308296,0.41258399200679385,0.4575640053917187,0.5376576622131037,1.2452736298284404,0.9795530726256984,0.4143063553368369,0.0,0.9635294117647059,50,536,1813,772091,no_split,narrow,individual,1,0.6913166046142578
1,1.0,0.4332337629880093,0.316080402114792,0.33899901896466045,0.36003657310292025,0.38262085828749376,0.4069990189646604,0.43487699805047775,0.4662937689040903,0.5095532311937788,0.5852088100465498,1.2518709144784737,0.9488205128205128,0.4143063553368369,0.0,0.9635294117647059,50,536,1813,772091,no_split,narrow,individual,1,0.6913166046142578
0,0.0,0.4084145593044389,0.30744656381629587,0.3239715617814255,0.33926123059021945,0.3556217838083848,0.374670369085634,0.39866639187808534,0.42869471327430614,0.47115237012234695,0.552945572084771,1.4031327953840596,0.9931707317073171,0.4317061734073126,0.0,0.9846039603960396,50,536,1821,772091,no_split,narrow,individual,1,0.6916215419769287
1,1.0,0.45570004723188096,0.3382718508996055,0.3623181075712431,0.3836403344000203,0.4061327953840597,0.4303673176369729,0.4564490437400988,0.4884306310912498,0.5318538729752114,0.6068651416823333,1.3998309481978213,0.9757788944723618,0.4317061734073126,0.0,0.9846039603960396,50,536,1821,772091,no_split,narrow,individual,1,0.6916215419769287
0,0.0,0.39854270017732313,0.3140621047514602,0.3281782744258476,0.34224627860125867,0.35550549889607924,0.37143269385474154,0.3919632569402428,0.41796386264140206,0.4539648445674699,0.5180658448668695,1.047804996580611,0.9965745856353592,0.41593765962248597,0.0,0.9926063829787234,50,536,3286,772091,no_split,narrow,individual,1,0.6941299438476562
1,1.0,0.43208375018440626,0.33579184194141615,0.35473710093161587,0.3728471391014988,0.3909486344336729,0.41122003467671503,0.43303736172820934,0.4605404614901652,0.49588512905899745,0.5569606433099914,1.334960176503605,0.9889230769230769,0.41593765962248597,0.0,0.9926063829787234,50,536,3286,772091,no_split,narrow,individual,1,0.6941299438476562
0,0.0,0.49673279804864706,0.3618806883770135,0.3860589920900925,0.40688690927301324,0.4305113098192629,0.4557826577506685,0.48641248985363905,0.5255070612242754,0.5834576236100668,0.6854287040809762,1.4441895447037465,0.9981818181818182,0.5207750732734223,0.0,0.995934065934066,50,536,3292,772091,no_split,narrow,individual,1,0.6852152347564697
1,1.0,0.5432827351859778,0.3954607320588959,0.4280837481079536,0.45567268812378514,0.4836105748383906,0.5125169746125796,0.5456656842668134,0.5862548406690865,0.6421706704368353,0.7276148918097801,1.4498247003130151,0.9938297872340426,0.5207750732734223,0.0,0.995934065934066,50,536,3292,772091,no_split,narrow,individual,1,0.6852152347564697
0,0.0,0.4246032737066019,0.31439063729819916,0.33231047578423684,0.34913489279984594,0.36754475451910434,0.38852005024168784,0.4142241554913677,0.4480436207036535,0.4960510225384164,0.5827693099534932,1.2478570035815169,0.9975401069518717,0.45745530120851174,0.0,0.9941298701298701,50,536,3487,772091,no_split,narrow,individual,1,0.6949982643127441
1,1.0,0.4884822160714266,0.3616348313015436,0.39103339565889833,0.41540967835307596,0.43849439502535137,0.4630941990114125,0.4903574347836232,0.5262749035858485,0.5720674791414156,0.6453348063595078,1.3342749035858485,0.990909090909091,0.45745530120851174,0.0,0.9941298701298701,50,536,3487,772091,no_split,narrow,individual,1,0.6949982643127441
0,0.0,0.4163294305796994,0.34118617467293527,0.3539769576862664,0.36563845970138303,0.37778079728422365,0.3913686336387643,0.4082879850649108,0.4315017264607413,0.4653651090292094,0.5248572986734094,1.166289288095892,0.9968159203980099,0.4355712100074339,0.0,0.9908629441624366,50,536,3580,772091,no_split,narrow,individual,1,0.6874372959136963
1,1.0,0.45561057614719874,0.36525656588210526,0.3853815672505852,0.4023407179314219,0.4193888769806924,0.4371099276068374,0.457618266505323,0.4814617951179793,0.5142491373203325,0.5688662655019295,1.0570681155441264,0.9846632124352331,0.4355712100074339,0.0,0.9908629441624366,50,536,3580,772091,no_split,narrow,individual,1,0.6874372959136963
0,0.0,0.49240346564425863,0.36476011852765067,0.38432739619486583,0.4037744847119619,0.42558180986424393,0.45131812696795953,0.48231639847058866,0.5231419185762971,0.5806823222707649,0.6767294932893568,1.4240236223315492,0.9726881720430107,0.5070139688225394,0.0,0.9634254143646409,50,536,3625,772091,no_split,narrow,individual,1,0.6914167404174805
1,1.0,0.5224546142268587,0.38431873207412737,0.4112743798982918,0.4357021323281173,0.45941937747310724,0.48611085281833305,0.5181032745329457,0.5567604279231347,0.6125946771940325,0.7077633054677344,1.4361186096011151,0.9536363636363636,0.5070139688225394,0.0,0.9634254143646409,50,536,3625,772091,no_split,narrow,individual,1,0.6914167404174805
0,0.0,0.5625510598129505,0.41156479406460666,0.443844869614224,0.4715574074854212,0.49856917239150056,0.5308415303563638,0.5644512323561535,0.606608210461901,0.6654504692440917,0.7526873653933556,1.4935647940646068,0.9986516853932584,0.5713651397739749,0.0,0.9983739837398374,50,536,3754,772091,no_split,narrow,individual,1,0.6906466484069824
1,1.0,0.5795793085334635,0.4299346813637317,0.46220300302650874,0.4904570172901165,0.5173692766339792,0.5474983162799164,0.5829465999917673,0.6224595001174771,0.6774521227963565,0.7703531498941649,1.468612572819228,0.9981151832460733,0.5713651397739749,0.0,0.9983739837398374,50,536,3754,772091,no_split,narrow,individual,1,0.6906466484069824
0,0.0,0.4300704421869758,0.3269065982972323,0.34501466009636234,0.36390433866301397,0.382712416693507,0.4037164811505821,0.4285480514373822,0.459659272402401,0.4995841389458491,0.5671862762974524,1.3807527825227273,0.9977659574468085,0.44473330129842986,0.0,0.9973575129533678,50,536,3910,772091,no_split,narrow,individual,1,0.6882522106170654
1,1.0,0.4586556119699116,0.364705187929818,0.38475266104930034,0.4028306883056146,0.41947639829923145,0.4383482243656583,0.4591852322066918,0.4842171349746389,0.5202168649913796,0.578436274607677,1.2290146600963623,0.996969696969697,0.44473330129842986,0.0,0.9973575129533678,50,536,3910,772091,no_split,narrow,individual,1,0.6882522106170654
0,0.0,0.40689432460938463,0.3364963079462301,0.3482498439796181,0.35917406897963006,0.37120817973654946,0.3849188970771192,0.4013842577537148,0.4234457681939082,0.4533678221896082,0.5050512809312445,1.0944849181464755,0.9976795580110497,0.4243372769211032,0.0,0.994421052631579,50,536,4222,772091,no_split,narrow,individual,1,0.683262825012207
1,1.0,0.44020247475236474,0.36073698883525185,0.37774228054521397,0.39296635851097206,0.40777802143553993,0.4228631469858475,0.44148692564717407,0.4638422712633494,0.49224984397961813,0.5413410109289454,1.149433516846729,0.9914572864321608,0.4243372769211032,0.0,0.994421052631579,50,536,4222,772091,no_split,narrow,individual,1,0.683262825012207
0,0.0,0.4964670649132217,0.34355450257122166,0.36759139450794687,0.3914203866735772,0.415878044473604,0.4462204875841044,0.48384913284599806,0.5318690873315424,0.602276366407697,0.7182068631873662,1.4453407039134267,0.9901010101010101,0.5203920523187632,0.0,0.9851889168765743,50,536,4264,772091,no_split,narrow,individual,1,0.6881871223449707
1,1.0,0.5441968136569402,0.3790471340559724,0.4136702590360402,0.44418023132848466,0.4747060576167241,0.5061590587767191,0.5447363288708847,0.5913123991293634,0.6520536624910835,0.7526959631368633,1.4638741488512643,0.9803015075376884,0.5203920523187632,0.0,0.9851889168765743,50,536,4264,772091,no_split,narrow,individual,1,0.6881871223449707
0,0.0,0.44695459569153045,0.3489271423477713,0.36752691620347216,0.38495419584129864,0.401731535620847,0.4211452083308803,0.4445737124132347,0.4723916196526606,0.513207124079158,0.5778817837322258,1.107472109411432,0.9997883597883598,0.46435117292870554,0.0,0.9991304347826087,50,536,5281,772091,no_split,narrow,individual,1,0.6890265941619873
1,1.0,0.48271962598918655,0.38108084359834776,0.40465508732868644,0.4245641721796838,0.4444490787731873,0.464140634751636,0.48634470711019606,0.5134748804049867,0.5490412154631603,0.6071185853254697,1.150498831661394,0.9984357541899441,0.46435117292870554,0.0,0.9991304347826087,50,536,5281,772091,no_split,narrow,individual,1,0.6890265941619873
0,0.0,0.4611236952909367,0.359675475063107,0.38029012631965725,0.39796335704158164,0.41706246645858064,0.43854997663888196,0.4613938727181749,0.48892995499071795,0.5291392643200392,0.5946878388874448,1.2596754750631072,0.9998913043478261,0.48870258365756425,0.0,0.9997837837837837,50,536,5332,772091,no_split,narrow,individual,1,0.6861112117767334
1,1.0,0.5159849248374538,0.41515093376571177,0.440053197731467,0.45982480593587355,0.478106203556194,0.4990953356828215,0.5202901263196572,0.5467398205179207,0.5820135638843629,0.6387423683659325,1.3728430379453591,0.9996774193548387,0.48870258365756425,0.0,0.9997837837837837,50,536,5332,772091,no_split,narrow,individual,1,0.6861112117767334
0,0.0,0.4898131897287915,0.3623496111714163,0.3867795290483351,0.40918211735575605,0.4319778030023284,0.4570233657712942,0.4876282013371143,0.522796140729871,0.5751887952050864,0.6623348897534901,1.4408596629547006,0.9990862944162436,0.5027090330191728,0.0,0.9983589743589744,50,536,5575,772091,no_split,narrow,individual,1,0.6903610229492188
1,1.0,0.5158721476730854,0.3865893097535761,0.41541776100070144,0.4388772411877287,0.46315142346736415,0.4883437293252679,0.5160283602235951,0.5509861308339754,0.6001499381786436,0.6811775708129175,1.4605896125803557,0.9976165803108809,0.5027090330191728,0.0,0.9983589743589744,50,536,5575,772091,no_split,narrow,individual,1,0.6903610229492188
0,0.0,0.48039731187533585,0.35400580567360146,0.3767846105121659,0.39729220840846713,0.41910896269752146,0.44255373769798567,0.47293294646425443,0.5090905274866018,0.5641493466144777,0.6570109219563242,1.4117846105121659,0.9961658031088083,0.5015717099402613,0.0,0.9936224489795918,50,536,5731,772091,no_split,narrow,individual,1,0.687251091003418
1,1.0,0.5221076839429276,0.382164465058209,0.4116910169026583,0.4372233913797203,0.46397413852221525,0.4917115719962362,0.5235326635339841,0.5629926018167248,0.6138520072252436,0.7000997471864311,1.4521899607216742,0.9911557788944724,0.5015717099402613,0.0,0.9936224489795918,50,536,5731,772091,no_split,narrow,individual,1,0.687251091003418
0,0.0,0.4482588790542113,0.3529668066108316,0.3677142692108675,0.3820062677200572,0.3967243559796409,0.41499302454615455,0.4368006881294968,0.4665384595109858,0.5095819559465118,0.5879463600436697,1.2840227400784268,0.9985869565217391,0.48176349550960756,0.0,0.9936239782016348,50,536,5761,772091,no_split,narrow,individual,1,0.6858389377593994
1,1.0,0.5154511973008257,0.3991917107101314,0.4271911301890046,0.4504818382810292,0.47190507949860055,0.4940119433660155,0.5198579594707644,0.549429855008377,0.5913775225472218,0.654298400506887,1.3913897338157861,0.9886338797814208,0.48176349550960756,0.0,0.9936239782016348,50,536,5761,772091,no_split,narrow,individual,1,0.6858389377593994
0,0.0,0.4506671479883457,0.32522118300995384,0.34373155323259014,0.3623627408685754,0.3820834111048726,0.40591905141786644,0.4361406630732228,0.4786222901221945,0.540056331193731,0.6396822125305669,1.3517327812946653,0.9786904761904762,0.47004640369875994,0.0,0.9652574525745258,50,536,5803,772091,no_split,narrow,individual,1,0.6875631809234619
1,1.0,0.4862439905611957,0.3544349659123785,0.3804814755267242,0.40298556459264023,0.4267125976660655,0.45224164309531845,0.48286730597514305,0.5203979615460944,0.5701415928780514,0.6600927458046233,1.4246486847461386,0.9540298507462687,0.47004640369875994,0.0,0.9652574525745258,50,536,5803,772091,no_split,narrow,individual,1,0.6875631809234619
0,0.0,0.5185059382764089,0.36536015287054957,0.3885901554980312,0.41067844378417545,0.43586837838749,0.46532006187971764,0.5033768350704562,0.5538797160660052,0.6224299741256388,0.744799789526013,1.484872819402669,0.9917412935323383,0.5433482993393114,0.0,0.9854263565891472,50,536,5815,772091,no_split,narrow,individual,1,0.6882181167602539
1,1.0,0.5701940766169642,0.40951050108326703,0.4412702062484105,0.47075018169668886,0.5018728194026689,0.533872819402669,0.5704318129819986,0.6151029660180488,0.6787980392281604,0.7784855496940577,1.485175621668967,0.9786021505376344,0.5433482993393114,0.0,0.9854263565891472,50,536,5815,772091,no_split,narrow,individual,1,0.6882181167602539
0,0.0,0.4306107092030465,0.34769710970892764,0.3636130260122133,0.37647110775545206,0.3907445636934893,0.4068518014534469,0.42513529534717004,0.4481152969988657,0.4820572124472681,0.542905500133661,1.1043971162300326,0.999438202247191,0.4576911408841535,0.0,0.9970572207084468,50,536,6055,772091,no_split,narrow,individual,1,0.6849942207336426
1,1.0,0.4831954627848787,0.3793145678489085,0.4026967690407,0.42247110775545205,0.4422446839769336,0.4629175526347427,0.4875127860641155,0.5164102644195215,0.5521337744065697,0.6103974368827522,1.1765713244512892,0.9948148148148148,0.4576911408841535,0.0,0.9970572207084468,50,536,6055,772091,no_split,narrow,individual,1,0.6849942207336426
0,0.0,0.4850350984504583,0.3479148011331038,0.37054735486914947,0.3931667390674175,0.4172597042708975,0.4456641200108454,0.47786293807249686,0.5223041338908028,0.5816728733802813,0.6766759780925649,1.3955041037604425,0.9952040816326531,0.5040101185240614,0.0,0.9930601092896175,50,536,6109,772091,no_split,narrow,individual,1,0.686504602432251
1,1.0,0.5258872004912747,0.3886336526475469,0.4162549402468332,0.44116379164703806,0.4663314113866604,0.49384346157917575,0.5238297155662126,0.5626698414949346,0.6158050920648173,0.7073414991074201,1.452370979451525,0.9905882352941177,0.5040101185240614,0.0,0.9930601092896175,50,536,6109,772091,no_split,narrow,individual,1,0.686504602432251
0,0.0,0.40795784790755785,0.3281780478293549,0.3398410958937053,0.3514417048792167,0.36390911696686973,0.3788410958937053,0.3960449494382589,0.41967626040404404,0.4564465019371987,0.5247326025116748,1.3457189517925205,0.9956603773584906,0.44160979374711257,0.0,0.9814868105515587,50,536,6214,772091,no_split,narrow,individual,1,0.6864452362060547
1,1.0,0.4764108304202131,0.3660195018976913,0.39108956502864983,0.41390500974181876,0.43486455901923743,0.4567188808695558,0.4800639358967326,0.509251233688934,0.546025768631822,0.609313785958921,1.4078645590192376,0.9668292682926829,0.44160979374711257,0.0,0.9814868105515587,50,536,6214,772091,no_split,narrow,individual,1,0.6864452362060547
0,0.0,0.4725675584895078,0.3429134087582267,0.36568998556851157,0.38635755049753384,0.4102744908998717,0.4371880368767546,0.4672505937638743,0.5052762448866706,0.5596244672192174,0.6508910913479717,1.3962744908998719,0.9860638297872341,0.4836504268793718,0.0,0.9822811671087534,50,536,6253,772091,no_split,narrow,individual,1,0.6860916614532471
1,1.0,0.49467465575394554,0.37255386504992666,0.39445859530228394,0.4158966300031295,0.43890107487385216,0.4628930735020402,0.49005713057646294,0.5253210332625394,0.5746251565999553,0.6606942401134123,1.379503896941461,0.9785185185185186,0.4836504268793718,0.0,0.9822811671087534,50,536,6253,772091,no_split,narrow,individual,1,0.6860916614532471
0,0.0,0.484391482635562,0.35839486740085624,0.38113866066564983,0.4022184704207467,0.42493660746961825,0.4482486137755743,0.4767331593283473,0.5153299195292353,0.568293201567971,0.6597620128372016,1.439333613044925,0.9980110497237569,0.5060250773989539,0.0,0.9950543478260869,50,536,6262,772091,no_split,narrow,individual,1,0.6907505989074707
1,1.0,0.5269645461271565,0.3956504276660987,0.4239344035741864,0.44869778342949407,0.47300326282351673,0.4987394123538782,0.5293193737127623,0.5639120283783747,0.6141784703445878,0.6927643613869222,1.4569255879924587,0.992192513368984,0.5060250773989539,0.0,0.9950543478260869,50,536,6262,772091,no_split,narrow,individual,1,0.6907505989074707
0,0.0,0.5107428899077714,0.39179214185273814,0.41467236944643615,0.43570858887637737,0.4558468669048713,0.4804192120060222,0.5099973830479376,0.5445200074023125,0.5940188270109416,0.6678310418137544,1.4750021224393615,0.9995721925133689,0.5297941186917751,0.0,0.998804347826087,50,536,6361,772091,no_split,narrow,individual,1,0.6929836273193359
1,1.0,0.5494768799216574,0.4345602409887632,0.4599849266191517,0.4820007281367128,0.5037447491879815,0.525572349799823,0.5523232601484356,0.5819713585323916,0.6236188956253401,0.6940021790468353,1.2897966789590145,0.9980110497237569,0.5297941186917751,0.0,0.998804347826087,50,536,6361,772091,no_split,narrow,individual,1,0.6929836273193359
0,0.0,0.4446664884359032,0.3286551834792833,0.35029421319600546,0.37019618718679304,0.3908121883596401,0.413409930201,0.4408714980459558,0.474554165806137,0.5227652706764504,0.6029471609019809,1.2091306529393309,0.9997814207650273,0.4655690642196248,0.0,0.9989473684210526,50,536,6427,772091,no_split,narrow,individual,1,0.6948590278625488
1,1.0,0.4849861777649093,0.36983713705948873,0.39551428934537397,0.4191181438419137,0.4403152754125814,0.46411313020709277,0.4901304566397961,0.520531981721536,0.5603020812659633,0.6250044844120867,1.2729502496684972,0.9981725888324873,0.4655690642196248,0.0,0.9989473684210526,50,536,6427,772091,no_split,narrow,individual,1,0.6948590278625488
0,0.0,0.4799576926719047,0.36934330985638997,0.38889156341408115,0.4078915634140811,0.427487936120925,0.4516549296559874,0.47706947739594846,0.510642380218159,0.5562241694855629,0.6274781466931116,1.251075728815003,0.9973821989528796,0.4914752638498461,0.0,0.9947757255936676,50,536,6583,772091,no_split,narrow,individual,1,0.6949899196624756
1,1.0,0.5031766260572227,0.40180457214950555,0.42320102839313023,0.4406620230234528,0.45989778428628125,0.4803410210437975,0.5033427700802686,0.5314215232497874,0.5687449882792918,0.6316625531964142,1.2401081041964517,0.9921276595744681,0.4914752638498461,0.0,0.9947757255936676,50,536,6583,772091,no_split,narrow,individual,1,0.6949899196624756
0,0.0,0.4519267656648595,0.3518786543635017,0.3665580892264705,0.38111050812796415,0.3971278088808423,0.41537479572582237,0.439763839603338,0.469909667976427,0.5176817552202416,0.6020002088996917,1.2555580892264704,0.9933333333333333,0.47635897079306466,0.0,0.9852307692307692,50,536,6634,772091,no_split,narrow,individual,1,0.6923582553863525
1,1.0,0.5007911759212698,0.38382954758826415,0.40936927177884985,0.42976383960333797,0.4517399643154217,0.47465864109281536,0.5011208577639009,0.5328442796208354,0.5763289032840685,0.6495768404967769,1.4361778331326884,0.9771282051282051,0.47635897079306466,0.0,0.9852307692307692,50,536,6634,772091,no_split,narrow,individual,1,0.6923582553863525
0,0.0,0.470605042064202,0.36782286888214677,0.38576209765916336,0.4023588594784278,0.4193387174516208,0.4388241343572759,0.46177604696875924,0.49086169432645044,0.5347934404688838,0.6123588594784278,1.4256617550393644,0.9989473684210526,0.5066776960992897,0.0,0.9952533333333333,50,536,6844,772091,no_split,narrow,individual,1,0.6977005004882812
1,1.0,0.5437252867299204,0.41099354290258855,0.4402605757189777,0.46589934230674046,0.4909812366734103,0.517886204089306,0.5478386479566353,0.5840572402452621,0.629322683054459,0.70745807418509,1.441809288609964,0.9914594594594595,0.5066776960992897,0.0,0.9952533333333333,50,536,6844,772091,no_split,narrow,individual,1,0.6977005004882812
0,0.0,0.4584812227042628,0.3482262049508533,0.36475300552547213,0.3820960507195846,0.39995768943990584,0.42058324783925544,0.44582688973825824,0.481602935245098,0.5302420578756643,0.6226848525308334,1.3217530055254723,0.993879781420765,0.48375003674812755,0.0,0.9877384196185286,50,536,7624,772091,no_split,narrow,individual,1,0.6947634220123291
1,1.0,0.5088815202808843,0.38684979133478653,0.41313553305810036,0.43674427010097444,0.45919090275952423,0.48305443740777243,0.5099198688407353,0.5443323627539741,0.5888376734560591,0.6635876196212449,1.2565926256163775,0.9816304347826087,0.48375003674812755,0.0,0.9877384196185286,50,536,7624,772091,no_split,narrow,individual,1,0.6947634220123291
0,0.0,0.41813443845635717,0.3361505206513415,0.34912666335596254,0.36209118121545975,0.3749197941574254,0.3898172251991219,0.4078072794908894,0.4319630374836457,0.46957024180509144,0.5369774519574521,1.4665367411760668,0.9935828877005347,0.4460709121163173,0.0,0.9771801566579634,50,536,7756,772091,no_split,narrow,individual,1,0.7004992961883545
1,1.0,0.47272458851638116,0.3621279783105695,0.38511599168692623,0.4052102505443239,0.4262410112145411,0.45009118121545977,0.47553133146742677,0.5068931620605475,0.5477015155482201,0.6131176407410567,1.2061153835582024,0.961530612244898,0.4460709121163173,0.0,0.9771801566579634,50,536,7756,772091,no_split,narrow,individual,1,0.7004992961883545
0,0.0,0.46009474402097844,0.32179602030362897,0.3482221535597881,0.3734489478274989,0.39864782367470714,0.4264462739365269,0.45985033339567494,0.4987925981039792,0.5513422145249781,0.6404626362929021,1.3780076006434023,0.99875,0.47488296706019406,0.0,0.9979679144385026,50,536,7768,772091,no_split,narrow,individual,1,0.7071332931518555
1,1.0,0.4904837298268392,0.3652373573490735,0.3911351509784776,0.4144645734894267,0.43694977596021134,0.46002449625479397,0.4895208420561305,0.5227763015298442,0.5726567136065495,0.6518355778490471,1.3883100275891787,0.9971428571428571,0.47488296706019406,0.0,0.9979679144385026,50,536,7768,772091,no_split,narrow,individual,1,0.7071332931518555
0,0.0,0.42548186156416623,0.31269860789706033,0.33018479857702115,0.34666732035013337,0.365359388544706,0.38667259435315404,0.41297331533983045,0.44566043887097545,0.4986008482059609,0.5889192642343605,1.4236866775595955,0.9940106951871658,0.4555439776011969,0.0,0.9839784946236559,50,536,7807,772091,no_split,narrow,individual,1,0.7047488689422607
1,1.0,0.4859310894872764,0.3467850879331978,0.37658453373448686,0.403187060305609,0.4289930833312969,0.4572480501998005,0.48736413476663015,0.5256665130183172,0.5771772905482084,0.656383401775409,1.337785684114496,0.9738378378378378,0.4555439776011969,0.0,0.9839784946236559,50,536,7807,772091,no_split,narrow,individual,1,0.7047488689422607
0,0.0,0.40933494359165207,0.3242949893502765,0.3374914833758496,0.35132780735766483,0.3652676514509004,0.3816671744582626,0.40129322246406596,0.42713748524840633,0.4632282558859182,0.5300378593313463,1.3646638022854827,0.9972527472527473,0.43183488210189525,0.0,0.9919667590027701,50,536,7813,772091,no_split,narrow,individual,1,0.7046611309051514
1,1.0,0.4547119145536509,0.3528380395899153,0.37514372608851504,0.3944500515601884,0.4133204970563661,0.43479857805229577,0.45714372608851506,0.48439028415895335,0.5223018356535478,0.5820699515921276,1.3242513376458167,0.9865921787709497,0.43183488210189525,0.0,0.9919667590027701,50,536,7813,772091,no_split,narrow,individual,1,0.7046611309051514
0,0.0,0.4274830097511767,0.33964937017613395,0.3568659269280716,0.3716434450622169,0.38745773013731205,0.40450415278772694,0.42368977456079154,0.4493505738673649,0.48447831702722577,0.5417449518182245,1.1378247817078273,1.0,0.4600536733281727,0.0,0.999009900990099,50,536,7828,772091,no_split,narrow,individual,1,0.7072093486785889
1,1.0,0.48840221384889143,0.3816728258761747,0.4074701749756672,0.4301518243963123,0.45130223082297993,0.47251803084116295,0.4956886964365279,0.5233796209625934,0.556655021451248,0.6144561008130937,1.4216215388623599,0.9981481481481481,0.4600536733281727,0.0,0.999009900990099,50,536,7828,772091,no_split,narrow,individual,1,0.7072093486785889
0,0.0,0.5594143304398685,0.39087279596001095,0.41985014247486124,0.44760477676701926,0.4784028319070063,0.5113664468076833,0.5519696103527081,0.6032526569319602,0.6758748851173176,0.7955120958146904,1.4957644779100212,0.9949206349206349,0.5799900311904529,0.0,0.9929198966408269,50,536,7840,772091,no_split,narrow,individual,1,0.7078878879547119
1,1.0,0.5996304728160109,0.4293503706659306,0.46386011952723616,0.49589876928250437,0.5263044357655963,0.5591874894847443,0.5988320707798357,0.6464737715553712,0.7122451202721655,0.8245964040135279,1.4866814640076922,0.991010101010101,0.5799900311904529,0.0,0.9929198966408269,50,536,7840,772091,no_split,narrow,individual,1,0.7078878879547119
0,0.0,0.47518222617271266,0.3841357156014358,0.402957655644399,0.4193083587337367,0.4343104633608176,0.4524744623640881,0.4725364457033792,0.4997649470249739,0.534992428936048,0.5935331570673801,1.0680207668492279,0.9998888888888889,0.502515670617157,0.0,0.9998933333333333,50,536,7924,772091,no_split,narrow,individual,1,0.7025396823883057
1,1.0,0.5277465424120288,0.43126249742192835,0.4547098527093305,0.47373953780184697,0.49220626357891745,0.5114236335649853,0.533029578432614,0.5565341436581799,0.5897916190695689,0.6427708947902104,1.2109642055467966,0.9998974358974358,0.502515670617157,0.0,0.9998933333333333,50,536,7924,772091,no_split,narrow,individual,1,0.7025396823883057
0,0.0,0.4792501472510259,0.35780626300772617,0.3819744593415325,0.40296062250909487,0.42660474344750576,0.45106262472627057,0.47943391906085847,0.5140944517637231,0.5602331269132208,0.6377891000310371,1.228565063714671,0.999578947368421,0.49936153832364416,0.0,0.9989873417721519,50,536,7939,772091,no_split,narrow,individual,1,0.7135055065155029
1,1.0,0.5180013641958269,0.401361645322966,0.42774208148491955,0.45072594384486475,0.47183182212106567,0.4955845775258475,0.5218097091022269,0.5525924365519371,0.5938106589939623,0.6637448579999937,1.24880907584107,0.9984390243902439,0.49936153832364416,0.0,0.9989873417721519,50,536,7939,772091,no_split,narrow,individual,1,0.7135055065155029
0,0.0,0.4563596866251713,0.35412103240575177,0.3706640574177587,0.385517156608523,0.40248557097094706,0.4221556368031659,0.44562454047454797,0.47666140297110293,0.5229648486134106,0.6054373970230938,1.465526876934045,0.9911515151515151,0.4799769459985663,0.0,0.9782485875706215,50,536,8026,772091,no_split,narrow,individual,1,0.7182514667510986
1,1.0,0.500595188308673,0.38063436528054523,0.405084079113522,0.42857440712509437,0.4517538370853346,0.47606435436602446,0.5029366119915522,0.5338028152234497,0.5789311830527929,0.6524148350952078,1.399539156602811,0.966984126984127,0.4799769459985663,0.0,0.9782485875706215,50,536,8026,772091,no_split,narrow,individual,1,0.7182514667510986
0,0.0,0.4669453537405724,0.3355241620600716,0.35548529346699753,0.3754789480988145,0.39806046500299386,0.422355875239986,0.4534866258667498,0.49498117617469367,0.5539962890017068,0.6597086192209349,1.4629029554748032,0.9822459893048129,0.4850197819875873,0.0,0.9733698630136987,50,536,8311,772091,no_split,narrow,individual,1,0.7131659984588623
1,1.0,0.5040080858201254,0.3631938286412182,0.38948482261467005,0.4144773001156685,0.4393046626714846,0.4659248185496895,0.4994559259332461,0.5417760375916963,0.5984569537926434,0.6925944962690734,1.4559356319218575,0.9640449438202248,0.4850197819875873,0.0,0.9733698630136987,50,536,8311,772091,no_split,narrow,individual,1,0.7131659984588623
0,0.0,0.40282510249656284,0.31479902529536796,0.32985025447602695,0.34485025447602696,0.3596453884942508,0.37637589955371137,0.39662515850392766,0.4226367832538528,0.45782367835593196,0.5219352442255165,1.189184379227142,0.9992746113989638,0.4338705893887374,0.0,0.9956639566395664,50,536,8446,772091,no_split,narrow,individual,1,0.7193558216094971
1,1.0,0.46791478808299714,0.348823678355932,0.37641575649875936,0.399574420881294,0.422184379227142,0.4459620350184781,0.4735057066194474,0.5058311407370111,0.5463476799724044,0.6117156893837392,1.3324770097599068,0.9917045454545454,0.4338705893887374,0.0,0.9956639566395664,50,536,8446,772091,no_split,narrow,individual,1,0.7193558216094971
0,0.0,0.4932821513679714,0.38245332125105924,0.40246717655263164,0.4215465125161439,0.4412731490754568,0.4640261911470547,0.49190537426324776,0.5256760592850792,0.5715069296359957,0.6413135982689103,1.2975399486552501,0.997286432160804,0.5077897156830532,0.0,0.9950649350649351,50,536,8521,772091,no_split,narrow,individual,1,0.708895206451416
1,1.0,0.5233112495470388,0.41831374649314673,0.4400307455675783,0.4581149521894985,0.4775747599311446,0.4995736556272631,0.5230251307297324,0.5532024820045133,0.5942763378005141,0.6594443366805026,1.3824326712450714,0.9926881720430107,0.5077897156830532,0.0,0.9950649350649351,50,536,8521,772091,no_split,narrow,individual,1,0.708895206451416
0,0.0,0.5699785594501423,0.40442407619092463,0.4460652169368343,0.4790235378308825,0.5103447249837347,0.5434284618005124,0.5800877572784354,0.6206112126690807,0.6753735294891042,0.7662675055114303,1.4121169588572093,0.9986885245901639,0.5771102033350908,0.0,0.9983954154727793,50,536,8704,772091,no_split,narrow,individual,1,0.7127301692962646
1,1.0,0.5849721962925941,0.4484758186586916,0.47655176066084215,0.500913482239654,0.5260404704864335,0.5526394525038921,0.5833447249837348,0.6229944533820991,0.6745224586713341,0.7637100764736647,1.4942661086622189,0.9980722891566265,0.5771102033350908,0.0,0.9983954154727793,50,536,8704,772091,no_split,narrow,individual,1,0.7127301692962646
0,0.0,0.4729715650880134,0.35970065409599383,0.3832187319313297,0.4036298178095203,0.42360663818545,0.44683146084233877,0.47222718766231003,0.5046651467754586,0.5477093529166258,0.6222163711485877,1.4596298178095204,0.9993236714975845,0.4852932140745167,0.0,0.9992268041237113,50,536,8755,772091,no_split,narrow,individual,1,0.7116520404815674
1,1.0,0.4993848236889155,0.3808237114374489,0.40790549156578626,0.43088907394661774,0.4526014391989345,0.4747863469348212,0.5028108839482791,0.53288764872822,0.5791282332762483,0.6459116128602397,1.3096116115512588,0.9991160220994475,0.4852932140745167,0.0,0.9992268041237113,50,536,8755,772091,no_split,narrow,individual,1,0.7116520404815674
0,0.0,0.4738810746599755,0.350582898936348,0.37011956111122685,0.3905593405408063,0.4118357326419872,0.43650679145521276,0.4667670198081197,0.5070378096852706,0.5605025922445045,0.6444963348398375,1.4817207155847762,0.9950961538461538,0.49111707081382167,0.0,0.99085,50,536,8785,772091,no_split,narrow,individual,1,0.7091541290283203
1,1.0,0.5097893999804883,0.39375004727625074,0.4183682695278789,0.43855519982964414,0.45956192430249376,0.482595873792967,0.509582898936348,0.5414767048149575,0.5857730999529739,0.6604137320527079,1.449853882495072,0.98625,0.49111707081382167,0.0,0.99085,50,536,8785,772091,no_split,narrow,individual,1,0.7091541290283203
0,0.0,0.4235709010418477,0.32218214158380243,0.33676346951874,0.3504130804182192,0.36657991993382966,0.3849192501449659,0.40805742236020426,0.439600469648686,0.4875507527931533,0.5772815791980112,1.415387520686089,0.9843617021276596,0.45395378979095896,0.0,0.9581491002570695,50,536,8788,772091,no_split,narrow,individual,1,0.7092792987823486
1,1.0,0.4823716160836599,0.35005468444816684,0.3757756197173956,0.4008384469923687,0.42582587163671864,0.45358713337054235,0.483583120511114,0.5209796833652827,0.5685571332896235,0.6511649585678059,1.4652689660485125,0.9336318407960199,0.45395378979095896,0.0,0.9581491002570695,50,536,8788,772091,no_split,narrow,individual,1,0.7092792987823486
0,0.0,0.43309161222581233,0.37013053134393,0.3805128091676279,0.3900917422625204,0.40008132394078627,0.4114455081827031,0.4256306863986668,0.4443120314009303,0.47158825824327316,0.5245150174154213,1.0121848543574563,0.9984444444444445,0.4592467925536812,0.0,0.9911475409836066,50,536,161753,772091,no_split,narrow,individual,1,0.7085630893707275
1,1.0,0.4845582573871027,0.4022764656885051,0.42119474489809405,0.4378024885732173,0.4522832937573379,0.4689701539947853,0.48744408786703397,0.5091939019709223,0.5383242537809574,0.5845576915632806,1.1104384066043576,0.9840860215053764,0.4592467925536812,0.0,0.9911475409836066,50,536,161753,772091,no_split,narrow,individual,1,0.7085630893707275
0,0.0,0.45783831630263644,0.36980251023090144,0.3860051521351402,0.40053538350108314,0.41664577397722374,0.43325644969220106,0.45348812648244663,0.4796398249565555,0.5165816292248807,0.5795470208886239,1.1884304640652872,0.9992783505154639,0.47604757710544404,0.0,0.9977127659574468,50,536,337788,772091,no_split,narrow,individual,1,0.712275505065918
1,1.0,0.49545744851063456,0.39542025637047873,0.41799125518478003,0.4378004554164935,0.45722625681029644,0.4766578721260393,0.49777592375795754,0.5252911479316456,0.5602942262382147,0.6160226191047924,1.1653489071776917,0.996043956043956,0.47604757710544404,0.0,0.9977127659574468,50,536,337788,772091,no_split,narrow,individual,1,0.712275505065918
