,congruency,mean_rt,qu10_rt,qu20_rt,qu30_rt,qu40_rt,qu50_rt,qu60_rt,qu70_rt,qu80_rt,qu90_rt,qu100_rt,mean_acc,mean_rt_overall,nonconvergent_trials,accuracy_overall,n_posterior_draws,condition,id,slurm_id,split,spacing,estimation_level,number_parts,time_post_sampling_sec
0,0.0,0.4173599364450582,0.34186722730364116,0.3573147336059093,0.3715423185413687,0.3840971780729704,0.39868155832605934,0.41632259760585855,0.43738384138343717,0.4680602278948344,0.5173456955266487,0.9365512895507946,0.9703157894736842,0.4236350559900084,0.0,0.9566666666666667,50,1147,1108,772026,no_split,wide,individual,1,0.46440887451171875
1,1.0,0.4299769321258623,0.34728759768504414,0.3668820694048649,0.3829454961264896,0.3991554150892678,0.41528373545065755,0.43348592110794637,0.45451551693279824,0.48331437358983537,0.530831798722684,0.9938632155828853,0.9428723404255319,0.4236350559900084,0.0,0.9566666666666667,50,1147,1108,772026,no_split,wide,individual,1,0.46440887451171875
0,0.0,0.4426493740629551,0.35799970278488186,0.37893566183869937,0.3972644466822894,0.41288490437482156,0.42863973750682605,0.4457894656412322,0.46805725893420186,0.4969941412538417,0.54512893695705,0.9444931869758364,0.9653968253968254,0.44913790389947567,0.0,0.9543157894736842,50,1147,1507,772026,no_split,wide,individual,1,0.4689755439758301
1,1.0,0.4555584910151951,0.36284776967254234,0.3857261598022727,0.4044144971289379,0.42165256486351044,0.44058896527565583,0.4609390263089634,0.48488446575918187,0.5170481005841836,0.5679832022922072,1.1838511113234598,0.9433507853403141,0.44913790389947567,0.0,0.9543157894736842,50,1147,1507,772026,no_split,wide,individual,1,0.4689755439758301
0,0.0,0.4497490532626065,0.35669081004794084,0.3795919360752073,0.39762107570155264,0.4142574417049153,0.4324865099787162,0.4528866125865202,0.47886497071626505,0.5111465165671031,0.5650466518403092,1.0831500037337651,0.9852631578947368,0.45969666390241615,0.0,0.979002624671916,50,1147,1538,772026,no_split,wide,individual,1,0.4661533832550049
1,1.0,0.46959219281112746,0.3673289406719313,0.3952321673655379,0.41581182153641544,0.43529866874662704,0.4554949292974614,0.47693443953389875,0.5040396238947255,0.5364457975298218,0.5876577590972681,1.271920833742313,0.9727748691099476,0.45969666390241615,0.0,0.979002624671916,50,1147,1538,772026,no_split,wide,individual,1,0.4661533832550049
0,0.0,0.46688759454405926,0.3779028251561826,0.3996399603592354,0.4169097317676314,0.43343403825021415,0.45147343519386934,0.4712396528489549,0.4946541219174457,0.5246692895514613,0.5765485506011314,1.3061884326818862,0.9806521739130435,0.4709366542228526,0.0,0.9763243243243244,50,1147,1582,772026,no_split,wide,individual,1,0.46912693977355957
1,1.0,0.4749421756255298,0.38101052734760515,0.40516313764257234,0.424068473004386,0.4424690976086313,0.46034627490965185,0.48011584385187933,0.5044675074366052,0.5371777599085918,0.5881312288708817,1.0580064057715755,0.9720430107526882,0.4709366542228526,0.0,0.9763243243243244,50,1147,1582,772026,no_split,wide,individual,1,0.46912693977355957
0,0.0,0.4365209272998552,0.35859196114657416,0.37635207882616106,0.3914817782405402,0.40598123508661976,0.42102738383919663,0.4378961237816343,0.45782346732699297,0.485391809110322,0.5331793699072889,1.015603349430004,0.9691099476439791,0.4477783025870804,0.0,0.9484595300261096,50,1147,1583,772026,no_split,wide,individual,1,0.46729207038879395
1,1.0,0.4589770457113513,0.3698832661053522,0.3914046548981379,0.40878522532635575,0.42660329451826834,0.4445381906923303,0.4645982198753582,0.4873506928339221,0.5191173941066395,0.5681471385926277,0.9065323962253433,0.9279166666666666,0.4477783025870804,0.0,0.9484595300261096,50,1147,1583,772026,no_split,wide,individual,1,0.46729207038879395
0,0.0,0.5663961849654273,0.4085419688864284,0.4414528563826799,0.47126820112117623,0.5023963411288512,0.5335940754131585,0.5697252151405068,0.6130288536913991,0.6703420800531391,0.7681306784750704,1.5207598537180045,0.9654237288135593,0.5684559274817702,0.0,0.9596153846153846,50,1147,1597,772026,no_split,wide,individual,1,0.4748096466064453
1,1.0,0.570405523339485,0.410368085140109,0.44637187969818787,0.476676172873421,0.5078763907226569,0.5401545184006123,0.5755215997216171,0.6185573469007616,0.6770452128389475,0.7771239624743247,1.5482321411523219,0.9541176470588235,0.5684559274817702,0.0,0.9596153846153846,50,1147,1597,772026,no_split,wide,individual,1,0.4748096466064453
0,0.0,0.4092229562594373,0.3364361404048944,0.3558377380552069,0.37050605134139275,0.3852540050515496,0.39882262311981687,0.4145994414330993,0.43359408339552863,0.45644208270920383,0.49339723146439174,0.8392554331962063,0.988,0.41699435782480043,0.0,0.9814775725593667,50,1147,1601,772026,no_split,wide,individual,1,0.462679386138916
1,1.0,0.4248068779169645,0.343148259267413,0.36535337827955827,0.38271081629484666,0.39904299948078953,0.4146540157790577,0.4322871276432564,0.4528377735737295,0.477172923018113,0.5177993677238761,0.8386836635963466,0.974920634920635,0.41699435782480043,0.0,0.9814775725593667,50,1147,1601,772026,no_split,wide,individual,1,0.462679386138916
0,0.0,0.48111464246575664,0.35015470393786374,0.3774308733276723,0.401714115954131,0.4267119642681351,0.4529407576222978,0.48366198775304164,0.5196482469135439,0.5713821476947468,0.6531889806171413,1.5219353612583668,0.9729473684210527,0.4863996239519188,0.0,0.9667894736842105,50,1147,1614,772026,no_split,wide,individual,1,0.4588134288787842
1,1.0,0.49168460543808107,0.3573271963448165,0.38759717133158683,0.4137273580817835,0.43945536852642897,0.4665885155147592,0.49688435911741796,0.5334956514479895,0.5829056930594939,0.656587485824973,1.4007744673596627,0.9606315789473684,0.4863996239519188,0.0,0.9667894736842105,50,1147,1614,772026,no_split,wide,individual,1,0.4588134288787842
0,0.0,0.4323239479321587,0.3782167627063221,0.39272558599085666,0.40415192089168495,0.4151496764691655,0.4257547949851892,0.4378952273386478,0.4508151176397385,0.4678145795267798,0.49421423473301634,0.7380301405280936,0.9937894736842106,0.43756132371379103,0.0,0.9897112860892389,50,1147,161753,772026,no_split,wide,individual,1,0.46462512016296387
1,1.0,0.4427712786798128,0.3830681649592652,0.3995378466718238,0.4131418315112131,0.4245341351175273,0.436522558865463,0.4492395508271723,0.4632067691101874,0.4828117536650375,0.5100667771779557,0.8060349313690227,0.9856544502617801,0.43756132371379103,0.0,0.9897112860892389,50,1147,161753,772026,no_split,wide,individual,1,0.46462512016296387
0,0.0,0.4692927012459187,0.37387955756722413,0.3960874414875293,0.4141946494904411,0.4322519159677609,0.45033038053782504,0.4722174571097389,0.49814855536320796,0.5331477445586639,0.5896327511941318,1.1293993719207296,0.9797872340425532,0.4744409715925511,0.0,0.9737730870712401,50,1147,1638,772026,no_split,wide,individual,1,0.4583606719970703
1,1.0,0.4795083790541579,0.3796990775104579,0.4037796695043447,0.4248234061320248,0.4433685408367853,0.463934926102807,0.485508478295859,0.510201875741278,0.5453869236927902,0.5989477042809667,1.1512844410357226,0.9678534031413613,0.4744409715925511,0.0,0.9737730870712401,50,1147,1638,772026,no_split,wide,individual,1,0.4583606719970703
0,0.0,0.3957512520443517,0.32820004618492826,0.34531219935068286,0.35850374207008007,0.3714651556776723,0.3849116400222371,0.3999317458248178,0.4163789398479639,0.4405849788831593,0.47689350902570454,0.8793276294607638,0.978421052631579,0.40358946672293144,0.0,0.9634300791556728,50,1147,1657,772026,no_split,wide,individual,1,0.45722007751464844
1,1.0,0.4114691534368475,0.3326165961253426,0.35297262186636136,0.36871228510894877,0.38484209658771745,0.3997186014909139,0.4171701575782048,0.4372376167878961,0.4637945970495456,0.5045389181743891,0.8556920142445289,0.9483597883597884,0.40358946672293144,0.0,0.9634300791556728,50,1147,1657,772026,no_split,wide,individual,1,0.45722007751464844
0,0.0,0.46410180505388743,0.3784497458545186,0.3976369045099674,0.41348717319852574,0.42962889058521775,0.44647878550825226,0.46474445927124414,0.487751496626296,0.5197023038155736,0.5754767899810834,1.0637801746659268,0.9868085106382979,0.47396938184648135,0.0,0.9771428571428571,50,1147,1663,772026,no_split,wide,individual,1,0.45455312728881836
1,1.0,0.48373308940967946,0.38771052145412926,0.41013654973523767,0.42933691136131563,0.4485095601572754,0.4680971206493957,0.4902631514512954,0.5153657409969251,0.546404904862717,0.5983790342170343,1.0653325298640866,0.9675789473684211,0.47396938184648135,0.0,0.9771428571428571,50,1147,1663,772026,no_split,wide,individual,1,0.45455312728881836
0,0.0,0.5118045813638361,0.39915121242064344,0.42765702925540017,0.4488691865134966,0.47049016747530126,0.4918216143377575,0.517152830408532,0.5450383347865773,0.5856383652458705,0.6460796280787174,1.272088702158836,0.9683870967741935,0.5200485156431965,0.0,0.96,50,1147,1761,772026,no_split,wide,individual,1,0.4552452564239502
1,1.0,0.5282483647125068,0.4085955154257434,0.4399185206063368,0.46367111408101674,0.4862895543099496,0.5106035648017028,0.5360153013575124,0.5669867637516813,0.60804146799948,0.6685276174988226,1.2623751714955975,0.9516577540106952,0.5200485156431965,0.0,0.96,50,1147,1761,772026,no_split,wide,individual,1,0.4552452564239502
0,0.0,0.445145892823904,0.3445754757770477,0.37021885617317113,0.38917319089991387,0.4083835278540536,0.4263997578014074,0.4483152513415382,0.4746155709413643,0.5100126806409803,0.5673937959837398,1.2117978372538731,0.9420942408376963,0.4487968692846515,0.0,0.930628272251309,50,1147,1768,772026,no_split,wide,individual,1,0.4554097652435303
1,1.0,0.45244784574539904,0.34969198423879394,0.3749098052286958,0.394388286434635,0.41399053843013983,0.43540811987828565,0.4584115109578534,0.4845035805961941,0.51819202520872,0.5759516226448081,1.2790387996377337,0.9191623036649215,0.4487968692846515,0.0,0.930628272251309,50,1147,1768,772026,no_split,wide,individual,1,0.4554097652435303
0,0.0,0.3713282479988417,0.2999312221774941,0.3182602377499272,0.3326066623555023,0.3458345545271321,0.359642214708354,0.374051955023051,0.3923098693220375,0.4171603211528919,0.4556449016328537,0.829455223162342,0.9575531914893617,0.37521537302720354,0.0,0.9473936170212766,50,1147,1813,772026,no_split,wide,individual,1,0.45271944999694824
1,1.0,0.37910249805556545,0.3034879173773057,0.32296574750790574,0.33886067909848433,0.35296179981429826,0.36785187990164825,0.38364018219766416,0.40286178952442786,0.42836944157965273,0.46892879473608634,0.8404806536126523,0.9372340425531915,0.37521537302720354,0.0,0.9473936170212766,50,1147,1813,772026,no_split,wide,individual,1,0.45271944999694824
0,0.0,0.38954537566221586,0.3132201153370224,0.331924013627097,0.3470189156043218,0.3608796775814675,0.37553997079226487,0.3917632221846068,0.4118620168020656,0.4392842185840575,0.48235788310028277,0.9520936140205593,0.9809473684210527,0.3933573208699755,0.0,0.97501312335958,50,1147,1821,772026,no_split,wide,individual,1,0.46053481101989746
1,1.0,0.39714930824942224,0.3151792124679952,0.3354572854911964,0.3525107043536789,0.3687621205172803,0.38568411972911226,0.4037349880041878,0.4236293345358994,0.45107218041348746,0.49478089540538367,0.8727631014264853,0.9691099476439791,0.3933573208699755,0.0,0.97501312335958,50,1147,1821,772026,no_split,wide,individual,1,0.46053481101989746
0,0.0,0.44488919416525247,0.3531513627488861,0.37714064074314907,0.39522020599431096,0.4126678125683338,0.4307269258037698,0.4503171328425896,0.47314314757229703,0.5028614359414293,0.556379518950004,1.1076772635643222,0.9818848167539267,0.4476515416580397,0.0,0.9782978723404255,50,1147,275,772026,no_split,wide,individual,1,0.45738649368286133
1,1.0,0.4505034787992418,0.3561798911299712,0.3803584051900478,0.39971458101255314,0.4180490616595956,0.43652766882372723,0.4563419840598763,0.4804561114115002,0.5134489704961654,0.5626718500523864,1.0179923892907763,0.9745945945945946,0.4476515416580397,0.0,0.9782978723404255,50,1147,275,772026,no_split,wide,individual,1,0.45738649368286133
0,0.0,0.37636517420724347,0.30585599464577223,0.3202615249571756,0.33314994819787436,0.34651385249125655,0.36075202911862825,0.37700627525506475,0.3958198529956626,0.42314973562821334,0.4683365753969953,0.8534343511289457,0.9723404255319149,0.3811700829876113,0.0,0.9662599469496022,50,1147,3286,772026,no_split,wide,individual,1,0.46242737770080566
1,1.0,0.38594956897019933,0.3099829132280407,0.3263149669052264,0.3414522691857218,0.35562538177428854,0.37080367200617625,0.3875794013186325,0.40916333194097115,0.43704862005098877,0.4805119807455941,0.9405352350645977,0.9602116402116402,0.3811700829876113,0.0,0.9662599469496022,50,1147,3286,772026,no_split,wide,individual,1,0.46242737770080566
0,0.0,0.45468220349769833,0.3646719899336783,0.3869210085655165,0.4041900530997916,0.421398047302515,0.43923350020073326,0.4585544025428784,0.4817701803449542,0.5126636946620484,0.5622336951337066,1.0765465603722126,0.9835978835978836,0.4632196314045753,0.0,0.9725065963060686,50,1147,3292,772026,no_split,wide,individual,1,0.45346593856811523
1,1.0,0.47171212548036323,0.3710358543813627,0.39749566264204694,0.417897207583256,0.4378559085148451,0.4578706188504012,0.4790923611513531,0.5058620812900164,0.5385808439561606,0.5921601016494216,1.0407202753169862,0.9614736842105264,0.4632196314045753,0.0,0.9725065963060686,50,1147,3292,772026,no_split,wide,individual,1,0.45346593856811523
0,0.0,0.45375059878876517,0.3727595280056795,0.39509779849753945,0.41153667032835617,0.4273283997996052,0.4442749626723086,0.46085499139537855,0.4803655449766915,0.5060411636129558,0.5459766099605087,0.9564190397936291,0.9874736842105263,0.457500051930889,0.0,0.9837270341207349,50,1147,337788,772026,no_split,wide,individual,1,0.4576835632324219
1,1.0,0.4612298744282895,0.3766591114111928,0.39900825193308503,0.4170814493847191,0.4339380707429255,0.4508308397825967,0.4694646044370695,0.489879214126147,0.5170009923565041,0.5599973585065107,0.8451998247546376,0.98,0.457500051930889,0.0,0.9837270341207349,50,1147,337788,772026,no_split,wide,individual,1,0.4576835632324219
0,0.0,0.4045910892602666,0.32571694671457535,0.343592539946051,0.35817602548628635,0.3715048558796968,0.38739734323784303,0.40470496625783525,0.42610590898957956,0.4542359012338227,0.5043333903441367,0.9675334531587205,0.9789304812834224,0.41545250291868935,0.0,0.9677956989247312,50,1147,3487,772026,no_split,wide,individual,1,0.45713090896606445
1,1.0,0.42643133726531135,0.3334721839791866,0.3546355564800689,0.3729555146165418,0.3907091091842463,0.4106238164631604,0.4313760554706307,0.4574162870656706,0.48797398553962557,0.5387203639254773,1.0535909466556759,0.9565405405405405,0.41545250291868935,0.0,0.9677956989247312,50,1147,3487,772026,no_split,wide,individual,1,0.45713090896606445
0,0.0,0.40933866928966783,0.34781471016032006,0.36516196618941765,0.3786124784432582,0.39073822731382585,0.40278820201372345,0.4155389506448477,0.42971624844710277,0.44888806791297564,0.47888837712814897,0.821131476492982,0.9812565445026178,0.41444856827574406,0.0,0.9758201058201058,50,1147,3580,772026,no_split,wide,individual,1,0.45537495613098145
1,1.0,0.4196677699139289,0.3520797947057018,0.37109001837796224,0.3855838740080884,0.3985266140145211,0.4117256530234958,0.42585615464260584,0.4432760229078891,0.4645893635479033,0.49803925558542506,0.7907190238784229,0.9702673796791443,0.41444856827574406,0.0,0.9758201058201058,50,1147,3580,772026,no_split,wide,individual,1,0.45537495613098145
0,0.0,0.46989646413129565,0.37115297821493254,0.39598595279839205,0.4147384364202188,0.43287861874172845,0.4507095036024321,0.47185679839621253,0.49661002728893067,0.5321575496316029,0.5912470892874707,1.480288850532712,0.9607692307692308,0.47891908082265783,0.0,0.9387845303867404,50,1147,3625,772026,no_split,wide,individual,1,0.45162391662597656
1,1.0,0.48804194881059065,0.38094850237043726,0.40814575665543246,0.4301319305785023,0.45072806945472493,0.4717640600911629,0.49374758383968476,0.5214415633676653,0.5575617394439577,0.6172199044197071,1.4792356589986415,0.9165555555555556,0.47891908082265783,0.0,0.9387845303867404,50,1147,3625,772026,no_split,wide,individual,1,0.45162391662597656
0,0.0,0.5526653079906555,0.43759019006465627,0.4682108508896997,0.4923083288307091,0.5151640223065079,0.5381584238684647,0.5619638140949701,0.5911207776328479,0.6289944822860214,0.6866163715758787,1.2506473817717005,0.9927748691099476,0.559934983952637,0.0,0.9902887139107611,50,1147,3754,772026,no_split,wide,individual,1,0.45719027519226074
1,1.0,0.5672429213670499,0.4470286586363343,0.47991763502144386,0.507230732109865,0.5300871994742878,0.5533513118584086,0.5791760250041953,0.6097541362433655,0.6479146356850048,0.7047814843053406,1.380736828297868,0.9877894736842106,0.559934983952637,0.0,0.9902887139107611,50,1147,3754,772026,no_split,wide,individual,1,0.45719027519226074
0,0.0,0.4116983654381525,0.33821078811280236,0.3564384632547858,0.3709045294941163,0.38460048499231453,0.39877448645942065,0.4149737703471977,0.434228383127219,0.46121823148608493,0.5037049500877325,0.8957768689830231,0.9701587301587301,0.416691100142189,0.0,0.9650131926121372,50,1147,3910,772026,no_split,wide,individual,1,0.4613490104675293
1,1.0,0.4216575572951516,0.34309113848166006,0.36296922779206364,0.37886199237857177,0.3943263389970201,0.409793592645062,0.4264372100800473,0.4466524062577455,0.47231488502301194,0.5150932239052393,0.9499660593759705,0.9598947368421052,0.416691100142189,0.0,0.9650131926121372,50,1147,3910,772026,no_split,wide,individual,1,0.4613490104675293
0,0.0,0.4056661444851307,0.33954089795775905,0.35380972748933387,0.36663043740176227,0.3791895872501046,0.3924219183516532,0.407084467561724,0.4250451969606094,0.44853600568221347,0.4896567305744307,0.9441773249613437,0.9805263157894737,0.40903470397913416,0.0,0.9677044854881266,50,1147,4222,772026,no_split,wide,individual,1,0.4564375877380371
1,1.0,0.4124210865392434,0.3448538453219426,0.36139912232200844,0.37518758236765243,0.38808242099573065,0.4012374515293072,0.41589678104007977,0.4334597790643016,0.45641354542856255,0.4942760683506738,0.900798987303604,0.9548148148148148,0.40903470397913416,0.0,0.9677044854881266,50,1147,4222,772026,no_split,wide,individual,1,0.4564375877380371
0,0.0,0.4488398840578533,0.34622393878749613,0.3693611971017177,0.38861413176097376,0.4066779881058712,0.4257268021000771,0.44710204135278847,0.47529666011369204,0.5143122814335911,0.5820924155025663,1.2756628290027758,0.948042328042328,0.45769550495888606,0.0,0.9203174603174603,50,1147,4264,772026,no_split,wide,individual,1,0.4451558589935303
1,1.0,0.4665511258599188,0.35745230446509185,0.38472820668207025,0.40592114237820803,0.4267773669522311,0.4478541154433883,0.4715825907178508,0.49862850823845867,0.5364896568870403,0.5994834993025656,1.2697210982271048,0.8925925925925926,0.45769550495888606,0.0,0.9203174603174603,50,1147,4264,772026,no_split,wide,individual,1,0.4451558589935303
0,0.0,0.4328277817877365,0.3736500496952903,0.3890422148220577,0.4013280166125105,0.4120596136576276,0.423354707398489,0.43604596100450993,0.4508898088641472,0.4707243168054837,0.5019259145431328,0.857012304595556,0.9842553191489362,0.43616307567201845,0.0,0.97792,50,1147,5281,772026,no_split,wide,individual,1,0.4555854797363281
1,1.0,0.439516205352473,0.37624032268606356,0.39198162755828037,0.405388695357767,0.4175678999627151,0.4303976239063212,0.4444527946025523,0.4604330306543404,0.4815857908795688,0.5147240629918068,0.7953700308633942,0.9715508021390374,0.43616307567201845,0.0,0.97792,50,1147,5281,772026,no_split,wide,individual,1,0.4555854797363281
0,0.0,0.46624606818356923,0.3780402573019951,0.39860872627740496,0.41610265528252843,0.4330619429342181,0.450733728412572,0.47034467366127136,0.49373468984241164,0.5252225719107532,0.5754484778503698,1.0088598518081064,0.9894179894179894,0.47370190835476117,0.0,0.9835733333333333,50,1147,5332,772026,no_split,wide,individual,1,0.4536449909210205
1,1.0,0.4812780040125852,0.38484814488690666,0.408506292608283,0.42837218040108205,0.44653219036499064,0.4669419694046594,0.4890333342647057,0.5133088872303659,0.5458822567120255,0.5949943396730741,1.0554723414817453,0.9776344086021506,0.47370190835476117,0.0,0.9835733333333333,50,1147,5332,772026,no_split,wide,individual,1,0.4536449909210205
0,0.0,0.44489569613680474,0.3604188117896612,0.38221926606912665,0.39921481308836765,0.4150963405874226,0.43087168609504145,0.4485745270672852,0.4693450717756974,0.496787394772097,0.5440838553055016,1.0408017104333653,0.976421052631579,0.45489957775796036,0.0,0.9615831134564644,50,1147,5575,772026,no_split,wide,individual,1,0.4486665725708008
1,1.0,0.46495638996970423,0.3695990959384717,0.39421289279756905,0.4134371085135291,0.4325405269761576,0.4512400627317842,0.4725982344336438,0.4964687257740454,0.5281414189145685,0.5781545372965257,1.0471807153257162,0.9466666666666667,0.45489957775796036,0.0,0.9615831134564644,50,1147,5575,772026,no_split,wide,individual,1,0.4486665725708008
0,0.0,0.4443107697085269,0.3620583019988834,0.3809066114644461,0.3958583763423942,0.41156558154739653,0.42752330538159633,0.44490435848903614,0.4674466988405672,0.4982068200587134,0.5505037475718495,1.0063293704898248,0.9594535519125683,0.44941241010818345,0.0,0.9463072776280324,50,1147,5731,772026,no_split,wide,individual,1,0.4482853412628174
1,1.0,0.4543783685823172,0.3666651246461853,0.38710207841523564,0.40468056017840576,0.42161861981237475,0.43874663134366754,0.45853146556316127,0.48151299457579894,0.5115007296831131,0.5627525989528519,1.1752006722129156,0.9335106382978723,0.44941241010818345,0.0,0.9463072776280324,50,1147,5731,772026,no_split,wide,individual,1,0.4482853412628174
0,0.0,0.4274226653085843,0.351793607896346,0.37301082442874695,0.3904881560976004,0.4054215756126176,0.41992220943133646,0.43505512648020017,0.45213902691225405,0.4758851422613768,0.512521315051452,0.9387702689418123,0.9874468085106383,0.440098740688307,0.0,0.9758620689655172,50,1147,5761,772026,no_split,wide,individual,1,0.4491119384765625
1,1.0,0.45270774688612664,0.36536732840333436,0.39112646575054066,0.41053445803797123,0.42756197687785735,0.4445438377923798,0.4636253825062403,0.483506851478671,0.5096024292759072,0.5519966908158649,1.0981383443010109,0.9643386243386244,0.440098740688307,0.0,0.9758620689655172,50,1147,5761,772026,no_split,wide,individual,1,0.4491119384765625
0,0.0,0.42364622766443605,0.3322481926636721,0.35457282126015455,0.37228275095993985,0.3883753576961585,0.4061807582303168,0.4253801112190612,0.45015822458221,0.4813161901967729,0.536446928170962,1.1870230518501643,0.9134375,0.4252017258990813,0.0,0.9032291666666666,50,1147,5803,772026,no_split,wide,individual,1,0.4483036994934082
1,1.0,0.4267572241337265,0.3341372731326188,0.3573156828076896,0.37440668450970876,0.3921514713815278,0.4096361200015609,0.43017967399352636,0.4536712733922881,0.48742686642846456,0.5402444708038214,1.0700465984111194,0.8930208333333334,0.4252017258990813,0.0,0.9032291666666666,50,1147,5803,772026,no_split,wide,individual,1,0.4483036994934082
0,0.0,0.495934719175034,0.38331124388528254,0.4131813311042512,0.43608097072840013,0.4567674496504404,0.47738211943348435,0.5014315020209332,0.5295987266277281,0.5668922145585966,0.6302318302005904,1.2637021985370442,0.9735416666666666,0.507365877437959,0.0,0.9631937172774869,50,1147,5815,772026,no_split,wide,individual,1,0.45165014266967773
1,1.0,0.5189173636825989,0.39796424232042343,0.4285128537287399,0.4539101018290191,0.4768650903816399,0.5006146330645347,0.5287023077975391,0.5592125290790311,0.5989592513456861,0.6596309988254168,1.3310722742181345,0.9527368421052631,0.507365877437959,0.0,0.9631937172774869,50,1147,5815,772026,no_split,wide,individual,1,0.45165014266967773
0,0.0,0.4161842925952968,0.3529283141254305,0.3678217032189229,0.3797536276236383,0.39165277655415337,0.40365568039097194,0.4172258267972966,0.434441210600385,0.45768882738241995,0.4949565706693864,0.8213640411869042,0.990421052631579,0.4260067328018336,0.0,0.9838624338624339,50,1147,6055,772026,no_split,wide,individual,1,0.45578718185424805
1,1.0,0.4359336670531208,0.3606268132979944,0.3784086345645721,0.39451717271973774,0.4103598886657317,0.4257425936006006,0.44283153465559155,0.4613236931067121,0.4854562789165639,0.5235573071425972,0.9044823382824664,0.9772340425531915,0.4260067328018336,0.0,0.9838624338624339,50,1147,6055,772026,no_split,wide,individual,1,0.45578718185424805
0,0.0,0.45859984201820525,0.35595542319488344,0.3800460033923389,0.3998498638180109,0.41906795781638223,0.4384277260771912,0.4608610066122549,0.48747631276613074,0.5254250184025362,0.5864713450350493,1.4573412979862506,0.9617297297297297,0.46655171375036564,0.0,0.9509383378016085,50,1147,6109,772026,no_split,wide,individual,1,0.4463672637939453
1,1.0,0.47437669391233195,0.36254699190362966,0.3894394942463858,0.4114769646153279,0.43419075901850324,0.456193218256275,0.4809721582099514,0.5105091435700998,0.5490462583116107,0.60880513758055,1.2905217507956612,0.9403191489361702,0.46655171375036564,0.0,0.9509383378016085,50,1147,6109,772026,no_split,wide,individual,1,0.4463672637939453
0,0.0,0.3886939244761955,0.3286682718188864,0.34232976107673724,0.35341111299423084,0.36533665865980275,0.3772138206483192,0.38958046633848176,0.4058126387288591,0.42666288371807537,0.4621969875365048,0.9378971780190481,0.9861780104712042,0.3995491736528174,0.0,0.9742558746736293,50,1147,6214,772026,no_split,wide,individual,1,0.45192527770996094
1,1.0,0.4103478850733111,0.3360666503157633,0.35385196626963145,0.3693925538095101,0.38379067374707065,0.3995163567875466,0.41591540875082594,0.4352975258445623,0.4597646562118021,0.5003036572986553,0.8459838180189629,0.9623958333333333,0.3995491736528174,0.0,0.9742558746736293,50,1147,6214,772026,no_split,wide,individual,1,0.45192527770996094
0,0.0,0.45537912632941374,0.3565517622117962,0.38231053589192227,0.4029238846067816,0.4223541812892299,0.4420983220724949,0.46313160219161337,0.48826910600821816,0.5189699737063904,0.56967921061227,1.268466507424623,0.9574603174603175,0.45890425297088583,0.0,0.9473544973544974,50,1147,6253,772026,no_split,wide,individual,1,0.4510946273803711
1,1.0,0.46242937961235775,0.36106385016013276,0.38945455891649233,0.4108328091035642,0.43043732175688587,0.45012029865609915,0.4712670172925796,0.49502771306420995,0.5276294988694186,0.577130469580952,1.2058351515445322,0.9372486772486772,0.45890425297088583,0.0,0.9473544973544974,50,1147,6253,772026,no_split,wide,individual,1,0.4510946273803711
0,0.0,0.45503877632709727,0.3766503579573663,0.39682294487820985,0.41296292875251583,0.42912695407658685,0.4448788680279674,0.46167811185504964,0.4813816633942999,0.5058525120060148,0.5471103517923546,1.1651094406281495,0.9798947368421053,0.4578739872257651,0.0,0.9753805774278215,50,1147,6262,772026,no_split,wide,individual,1,0.4481658935546875
1,1.0,0.46069435408831433,0.37895126761868514,0.4002822039383644,0.41815566565296913,0.4339150408040902,0.4502786614969958,0.46862206057501177,0.48835914163829625,0.5162479023740013,0.5556926554174589,0.8824321670764521,0.970890052356021,0.4578739872257651,0.0,0.9753805774278215,50,1147,6262,772026,no_split,wide,individual,1,0.4481658935546875
0,0.0,0.4961864656670055,0.4027957990580333,0.424565245484752,0.4438833885978782,0.46228578128351067,0.4799271100612967,0.5010201038271226,0.525592526322415,0.5590215160494979,0.6108023057266087,1.1746794423475024,0.9923157894736843,0.5066341296504874,0.0,0.9859473684210527,50,1147,6361,772026,no_split,wide,individual,1,0.4490985870361328
1,1.0,0.5170817936339692,0.41697824552722385,0.44443033031981105,0.4657195134543934,0.4849481632434934,0.5050040637775759,0.5271513153653931,0.5521118209612542,0.5834729244033608,0.6300575566873812,1.1506320307027103,0.9795789473684211,0.5066341296504874,0.0,0.9859473684210527,50,1147,6361,772026,no_split,wide,individual,1,0.4490985870361328
0,0.0,0.4106198566215803,0.3454220174850366,0.3629435779132685,0.37612217298179973,0.3890385800612594,0.40140112207198175,0.41507138665450627,0.431640026929375,0.452257979076898,0.4869030873778026,0.8593286355462973,0.9827368421052631,0.4149929903275832,0.0,0.9795250659630607,50,1147,6427,772026,no_split,wide,individual,1,0.45036792755126953
1,1.0,0.4193892623071628,0.3503493811903893,0.3685474514854333,0.3826059415823475,0.3962309632596038,0.41019639056453217,0.4256565866144195,0.44246430656729224,0.46499284141372765,0.5007177312906277,0.8705190703384539,0.9762962962962963,0.4149929903275832,0.0,0.9795250659630607,50,1147,6427,772026,no_split,wide,individual,1,0.45036792755126953
0,0.0,0.4602868868461699,0.3830089391002425,0.4037802723541354,0.4194499120917457,0.4340872277943433,0.448642214389524,0.46509620568053617,0.4839597734363097,0.5102075442823446,0.5499303798165618,0.9709131678039835,0.9703191489361702,0.46392272344477775,0.0,0.96384,50,1147,6583,772026,no_split,wide,individual,1,0.4462447166442871
1,1.0,0.46757800301984875,0.38755306217899277,0.40875958103579724,0.42510985834825143,0.4402756784778789,0.4565710672785289,0.4731614076611306,0.4947195231411952,0.5206467590521838,0.5632783561211852,0.9392942453099915,0.9573262032085561,0.46392272344477775,0.0,0.96384,50,1147,6583,772026,no_split,wide,individual,1,0.4462447166442871
0,0.0,0.44425391556491567,0.358178098953693,0.3817401687216651,0.3985027936924762,0.41442785458441306,0.43126441144806327,0.44986972110428286,0.471248220006971,0.49989095413768897,0.5439275364104946,1.0603454674354262,0.9748148148148148,0.4510229312516353,0.0,0.9613368983957219,50,1147,6634,772026,no_split,wide,individual,1,0.44612836837768555
1,1.0,0.45793830403428404,0.3645326199129599,0.38817815861463095,0.4082988467294373,0.4267407653355674,0.44520673470708716,0.46589469031837194,0.4899483637372528,0.5198536712605525,0.5691638039113246,1.0374154851296529,0.9475675675675675,0.4510229312516353,0.0,0.9613368983957219,50,1147,6634,772026,no_split,wide,individual,1,0.44612836837768555
0,0.0,0.4543199110005533,0.3809029822148369,0.40075801279760503,0.4163309885404356,0.4299901602741312,0.44376721939010855,0.45938431043387234,0.47697518905672714,0.5004513765322238,0.5403333742564296,0.919645312053914,0.9838541666666667,0.4610974601280636,0.0,0.9703394255874673,50,1147,6844,772026,no_split,wide,individual,1,0.4494764804840088
1,1.0,0.4679104938059797,0.388507982860527,0.41029406019968956,0.4274896178314078,0.44378184646156876,0.45955615020985463,0.47597508393302224,0.4955724785266302,0.5189670122159832,0.5569103781938891,0.8722461980569904,0.9567539267015707,0.4610974601280636,0.0,0.9703394255874673,50,1147,6844,772026,no_split,wide,individual,1,0.4494764804840088
0,0.0,0.4377284274865418,0.3504512871062874,0.3722713336474033,0.3909988286327696,0.40706338166556355,0.4238741520354383,0.44211683223201287,0.46318437238701254,0.49301798146157594,0.5403004729186042,0.9767980579656402,0.9812631578947368,0.4572562912621682,0.0,0.9518848167539267,50,1147,7624,772026,no_split,wide,individual,1,0.4430208206176758
1,1.0,0.476580739790132,0.36848170055069124,0.3975034186123259,0.4210188696242969,0.4431030818791246,0.4639886146458637,0.48741283569448673,0.5146387049396534,0.5478249637225217,0.6020932574502766,1.1267263261726266,0.9228125,0.4572562912621682,0.0,0.9518848167539267,50,1147,7624,772026,no_split,wide,individual,1,0.4430208206176758
0,0.0,0.40713827954682236,0.3321422229039981,0.3508780610211719,0.36539919631488843,0.3800417150079772,0.394161790666267,0.41021811308489836,0.42999993058885655,0.45589736494313404,0.4971224268257788,0.9088964771445739,0.9704166666666667,0.4137825498690215,0.0,0.9590575916230366,50,1147,7756,772026,no_split,wide,individual,1,0.4588906764984131
1,1.0,0.42049675987882273,0.3402658045044911,0.3596451539915793,0.3762995049693521,0.3917573773442953,0.40753548559763964,0.4247840908742744,0.4448025068361777,0.47267012815707293,0.5176837481001237,0.9704406114667227,0.9475789473684211,0.4137825498690215,0.0,0.9590575916230366,50,1147,7756,772026,no_split,wide,individual,1,0.4588906764984131
0,0.0,0.4209706283604234,0.3273025176122802,0.352978053467473,0.37339652845387067,0.3899315131600767,0.4078906118162493,0.4270591276611594,0.448670582489391,0.4804718610127141,0.5307049754266803,1.1418204958184222,0.9707446808510638,0.4296895945751172,0.0,0.9517962466487936,50,1147,7768,772026,no_split,wide,individual,1,0.4436781406402588
1,1.0,0.43854994943113024,0.3398661161213425,0.36525911202152084,0.386290617615853,0.4058162919434998,0.4250853643150632,0.4465595926290894,0.4713936898353323,0.5035860165552873,0.554836499809113,1.0228437970043203,0.9325405405405406,0.4296895945751172,0.0,0.9517962466487936,50,1147,7768,772026,no_split,wide,individual,1,0.4436781406402588
0,0.0,0.40421134118266083,0.31539440117844625,0.33627600229833315,0.3546511397910307,0.3709298540824356,0.3888364389707957,0.4082525853177411,0.43192154809312877,0.46154907484543267,0.5133144474689326,1.0397237839086024,0.9499476439790576,0.40771852939110687,0.0,0.9329319371727749,50,1147,7807,772026,no_split,wide,individual,1,0.4396343231201172
1,1.0,0.41122571759955295,0.32120877636500955,0.34423117332312286,0.3618109530026073,0.37929414839273934,0.3973033709979246,0.4169948481237952,0.44000823444370346,0.47027382744354224,0.5195323895233794,1.2615357735300627,0.9159162303664922,0.40771852939110687,0.0,0.9329319371727749,50,1147,7807,772026,no_split,wide,individual,1,0.4396343231201172
0,0.0,0.3954866930833824,0.32537300805272534,0.3399228108256088,0.35291335618472885,0.36576623846224565,0.3799509680531756,0.395656040383001,0.41467756074901635,0.44199137039030134,0.48721761203857256,0.9264075265316143,0.9696875,0.40028981759625226,0.0,0.9598425196850394,50,1147,7813,772026,no_split,wide,individual,1,0.4483323097229004
1,1.0,0.4051691821807549,0.32855092143666287,0.34665760255059735,0.361051347163522,0.37567774532311593,0.3909149869232601,0.40813561706061613,0.429102647973998,0.45602537072010724,0.49736939535660457,0.964038173153835,0.9498412698412698,0.40028981759625226,0.0,0.9598425196850394,50,1147,7813,772026,no_split,wide,individual,1,0.4483323097229004
0,0.0,0.412813575296265,0.352119055254572,0.36871800493142515,0.3820106021844179,0.39348900450008834,0.40556041517888464,0.4182322251998993,0.4327963936636389,0.45155044979973963,0.48130655251074417,0.8717818160154273,0.9840837696335079,0.41645499460508245,0.0,0.9809947643979058,50,1147,7828,772026,no_split,wide,individual,1,0.447589635848999
1,1.0,0.42009641391389985,0.35542143360228773,0.3738084311448099,0.3871997069105242,0.3994900733325339,0.411892525945363,0.42611742008181325,0.4421842934335321,0.46337656137996586,0.4947377350062614,0.7236986045964751,0.9779057591623037,0.41645499460508245,0.0,0.9809947643979058,50,1147,7828,772026,no_split,wide,individual,1,0.447589635848999
0,0.0,0.5550781209216511,0.40799046747444256,0.4377400498878029,0.4638136404194418,0.49153126908148276,0.5210500848074517,0.5556533614947538,0.5967131338211488,0.6523628899094822,0.7482173143769797,1.52691225155187,0.964021164021164,0.5618927140927692,0.0,0.9594680851063829,50,1147,7840,772026,no_split,wide,individual,1,0.4471416473388672
1,1.0,0.5687801906133109,0.41436873186215994,0.4479804181931606,0.47920235653040494,0.5076645189994515,0.5381980314772081,0.5713478623542401,0.6128208008479019,0.6694585680418044,0.7637519402289297,1.521765385301077,0.9548663101604278,0.5618927140927692,0.0,0.9594680851063829,50,1147,7840,772026,no_split,wide,individual,1,0.4471416473388672
0,0.0,0.46058200806459887,0.37671827797999596,0.39679151127952705,0.414168727948799,0.4305521950520652,0.4475927007748106,0.4656369864716444,0.4877333812062414,0.517216248647597,0.5624516370866514,1.1822590133501092,0.9956020942408377,0.46907054182876246,0.0,0.993455497382199,50,1147,7924,772026,no_split,wide,individual,1,0.4508533477783203
1,1.0,0.477559075592926,0.3897394544071392,0.4114592333273282,0.43123522759862415,0.4495740408152659,0.46743502040938445,0.48684452397940287,0.5098444482697065,0.5359790910530305,0.5794496997315535,1.0641126920715531,0.9913089005235602,0.46907054182876246,0.0,0.993455497382199,50,1147,7924,772026,no_split,wide,individual,1,0.4508533477783203
0,0.0,0.4502075237850923,0.37311880619847976,0.39367543430947355,0.4103497872127657,0.42577623730055136,0.4404489319353735,0.4571285155349931,0.47581019233265953,0.4994980212999356,0.5390517435192435,0.9224927034432824,0.9886772486772487,0.4568989693207237,0.0,0.9835013262599469,50,1147,7939,772026,no_split,wide,individual,1,0.4449462890625
1,1.0,0.46362600765175743,0.3780268239866659,0.4017623292027158,0.42095561708660856,0.43787249751678703,0.4538418995546243,0.47219431830163966,0.49330060672890247,0.5195156253217308,0.5598397357915736,0.8809952843183259,0.9782978723404255,0.4568989693207237,0.0,0.9835013262599469,50,1147,7939,772026,no_split,wide,individual,1,0.4449462890625
0,0.0,0.44674895577727336,0.3474778126979786,0.37261389144823454,0.3930681165129714,0.41134390675869253,0.4304640302855044,0.44995730089076824,0.47404343698242507,0.5082396417216029,0.5694076340745603,1.1931500081868829,0.9585393258426966,0.4557447847218243,0.0,0.9325068870523416,50,1147,8026,772026,no_split,wide,individual,1,0.44167041778564453
1,1.0,0.46440023094955435,0.3576314638314351,0.38636928733332365,0.4086147054457614,0.42889345547398755,0.44930118371827743,0.47339474358645145,0.49954224132709163,0.5317931981569195,0.5889777795266746,1.2010683050219189,0.9074594594594595,0.4557447847218243,0.0,0.9325068870523416,50,1147,8026,772026,no_split,wide,individual,1,0.44167041778564453
0,0.0,0.4706909148315158,0.37231167941310633,0.39430603041074913,0.4131138840252571,0.43046380754222413,0.4501498354266342,0.473765840623704,0.5003530654899617,0.5373051585479933,0.5947952165998642,1.0512573843108728,0.9772631578947368,0.4746420193273271,0.0,0.9708421052631578,50,1147,808,772026,no_split,wide,individual,1,0.44409799575805664
1,1.0,0.47859312382313846,0.37577185114115264,0.3990904152559742,0.4193686407137129,0.4406055249678534,0.4608935476535496,0.4837367353407996,0.5098756572683896,0.5459761982930263,0.6055962108292404,1.2271162135414606,0.964421052631579,0.4746420193273271,0.0,0.9708421052631578,50,1147,808,772026,no_split,wide,individual,1,0.44409799575805664
0,0.0,0.4426325211798908,0.3401762585161999,0.36523672602311497,0.3860727698427929,0.404287958282586,0.42318944678839765,0.44542242322591097,0.4727448798575807,0.5084192704056775,0.5694345575784727,1.101831007760264,0.9305759162303665,0.4452557363976832,0.0,0.9203133159268929,50,1147,8311,772026,no_split,wide,individual,1,0.4434223175048828
1,1.0,0.44786528903621625,0.3435894652065399,0.3693011128650787,0.3899158980664444,0.40924705634727965,0.4302772970771914,0.4536853724552768,0.481037136320845,0.5171529558016777,0.5746589179676913,1.2332646653961832,0.9101041666666667,0.4452557363976832,0.0,0.9203133159268929,50,1147,8311,772026,no_split,wide,individual,1,0.4434223175048828
0,0.0,0.4567521552731619,0.3780974071210078,0.3971469758257058,0.4134126774925133,0.428149773721436,0.4440648486551876,0.460424562776758,0.4799244406826337,0.5057869254915224,0.5517991764428712,0.9384418050557902,0.9659375,0.4618445896525882,0.0,0.9546560846560846,50,1147,833,772026,no_split,wide,individual,1,0.44312381744384766
1,1.0,0.46710129610877016,0.3822519540005345,0.4046346077508578,0.42096809860941775,0.4372141962789768,0.4538998836261178,0.4715165758159362,0.4942067065320281,0.5227924449231675,0.5686474594572059,1.1588873020811,0.943010752688172,0.4618445896525882,0.0,0.9546560846560846,50,1147,833,772026,no_split,wide,individual,1,0.44312381744384766
0,0.0,0.5558781239506252,0.3897898235283942,0.423661867122876,0.453097679693983,0.48207936451568645,0.5131306410334706,0.5529522846349978,0.6020164835683733,0.666719693232875,0.7767638084060814,1.5827614127762017,0.941195652173913,0.5649405426132297,0.0,0.922918918918919,50,1147,837,772026,no_split,wide,individual,1,0.44486188888549805
1,1.0,0.5739055159138705,0.4017913207772349,0.4398411798224357,0.47243128778106286,0.5054911208979072,0.5408550848953485,0.5777719281530237,0.6280859336195377,0.6873819684487554,0.7878174944836526,1.5661710503933755,0.9048387096774193,0.5649405426132297,0.0,0.922918918918919,50,1147,837,772026,no_split,wide,individual,1,0.44486188888549805
0,0.0,0.3893547463966056,0.32166140673683263,0.34107155469106254,0.3544991636323972,0.36740061807388646,0.3805795393506606,0.3945841290971317,0.4111753148873249,0.4324823507430496,0.4661409328421289,0.7725487972746732,0.9830366492146597,0.3961895005356813,0.0,0.9733157894736842,50,1147,8446,772026,no_split,wide,individual,1,0.4464542865753174
1,1.0,0.403096580115382,0.3288331905383109,0.34923146773981484,0.36542282076726984,0.3801944784912189,0.39483954980567915,0.4101626300149353,0.429124872135183,0.45302538858241115,0.489028085841845,0.948029592984595,0.9634920634920635,0.3961895005356813,0.0,0.9733157894736842,50,1147,8446,772026,no_split,wide,individual,1,0.4464542865753174
0,0.0,0.4231910120008867,0.34623765007770496,0.3649619276785096,0.38013099170497966,0.39445903680426464,0.4093089271186071,0.4254711610648437,0.4462240105298598,0.4735342191598276,0.5167014428179506,1.1493750894343346,0.9675132275132275,0.42895244618909006,0.0,0.9569148936170213,50,1147,845,772026,no_split,wide,individual,1,0.4434051513671875
1,1.0,0.4347754999942795,0.3491858948940241,0.3703594779668889,0.3882068661916404,0.404523285745207,0.4216378828103716,0.4408401038466231,0.4625879770141485,0.4909706878871815,0.5363086497246895,1.0031702820678854,0.9462032085561497,0.42895244618909006,0.0,0.9569148936170213,50,1147,845,772026,no_split,wide,individual,1,0.4434051513671875
0,0.0,0.49022873557717517,0.39644433088303216,0.42063389283374064,0.4394665517231051,0.45598350790465403,0.4744643203185387,0.49488116205075383,0.5181156822527642,0.5496253226451607,0.6029931892515003,1.1146562269317704,0.9627225130890052,0.4922029849656832,0.0,0.9535263157894737,50,1147,8521,772026,no_split,wide,individual,1,0.4473264217376709
1,1.0,0.4941981258821118,0.3963859624047489,0.4223125019589992,0.44275869247037103,0.46075297008675914,0.47847409023282333,0.4990701448777573,0.5240684830215778,0.5571025896829817,0.6109884961621177,1.3023292173964356,0.9442328042328042,0.4922029849656832,0.0,0.9535263157894737,50,1147,8521,772026,no_split,wide,individual,1,0.4473264217376709
0,0.0,0.5626973690034885,0.4297270612298325,0.4586375001145886,0.48530882327460206,0.5122054973418885,0.5390088342962487,0.5693400906685541,0.6050943047508984,0.6530886875057376,0.7283396603668933,1.3853935047880637,0.9789130434782609,0.5654661330809987,0.0,0.9786559139784946,50,1147,8704,772026,no_split,wide,individual,1,0.4469144344329834
1,1.0,0.5681759872845193,0.433204937962007,0.46401602083640897,0.49179369449537547,0.5176991710068182,0.5442138696322849,0.5746290017515452,0.6108128812168561,0.6571748223897631,0.7304928410031926,1.427702677183796,0.978404255319149,0.5654661330809987,0.0,0.9786559139784946,50,1147,8704,772026,no_split,wide,individual,1,0.4469144344329834
0,0.0,0.4478447067463343,0.36428950690737333,0.3859290020277353,0.4026015105959051,0.41887439457383835,0.4350920149900118,0.45401928902621813,0.4760847246733196,0.503108793108044,0.5483151676876209,0.9952837389469664,0.9902173913043478,0.4542505280659006,0.0,0.9865753424657534,50,1147,8755,772026,no_split,wide,individual,1,0.4442017078399658
1,1.0,0.46076252321949285,0.369584963536422,0.39376760597924343,0.4138255903717312,0.4319950757692813,0.44854892536578156,0.4679515223644336,0.4917823186051852,0.5214484323179766,0.5664360624377149,0.8681821734129012,0.9828729281767956,0.4542505280659006,0.0,0.9865753424657534,50,1147,8755,772026,no_split,wide,individual,1,0.4442017078399658
0,0.0,0.448269408518436,0.3594345730860486,0.3812491117140378,0.39915913642999007,0.41607806478119,0.43314878436680426,0.4530419694457026,0.4768265396570411,0.5071569074684458,0.5556895932944063,1.0728000968317737,0.9604166666666667,0.4514466328513083,0.0,0.9574479166666666,50,1147,8785,772026,no_split,wide,individual,1,0.44204187393188477
1,1.0,0.4546238571841808,0.3628418825112757,0.38567144430453376,0.40318483337016586,0.4215571163545577,0.44014020704906304,0.46047171572565115,0.4837057812999539,0.5136003983244519,0.5648941465925357,1.0284282092873587,0.9544791666666667,0.4514466328513083,0.0,0.9574479166666666,50,1147,8785,772026,no_split,wide,individual,1,0.44204187393188477
0,0.0,0.41118027779008937,0.3249152922208233,0.34602308635850604,0.3637199479955432,0.37981225066605084,0.3965733506578456,0.4151934936341563,0.4376854093607102,0.4668375362135905,0.5176476511878847,0.9884213002543246,0.9748148148148148,0.42097138709475823,0.0,0.963501326259947,50,1147,8788,772026,no_split,wide,individual,1,0.4454970359802246
1,1.0,0.430814576768069,0.33211560727457334,0.35704927619258053,0.377151802977263,0.39753791972998576,0.4161659821441759,0.43824301703045204,0.4641967105666847,0.49479150379162523,0.5464989891133264,1.1149181087649018,0.9521276595744681,0.42097138709475823,0.0,0.963501326259947,50,1147,8788,772026,no_split,wide,individual,1,0.4454970359802246
0,0.0,0.4698002490967232,0.3612033324237124,0.38253435377382144,0.4020288462933097,0.42128424271994075,0.4429033486747994,0.4674474822920119,0.4978278616900741,0.541847912581682,0.6098011427642644,1.4963853461874748,0.9615873015873015,0.4778095452097076,0.0,0.9509574468085107,50,1147,916,772026,no_split,wide,individual,1,0.4494020938873291
1,1.0,0.4859045022436865,0.36587510477740465,0.39086307063297693,0.41338463166018347,0.43464552790314676,0.4598647631333782,0.48792850577885705,0.5230142769825772,0.5695886089203892,0.6420481357511525,1.2527084875175756,0.9402139037433155,0.4778095452097076,0.0,0.9509574468085107,50,1147,916,772026,no_split,wide,individual,1,0.4494020938873291
0,0.0,0.4079407604822281,0.33292904908297893,0.35090315603277805,0.3653614966214231,0.37897801651503144,0.3929156508942665,0.4086243764885639,0.4285930382583199,0.45617058683850514,0.5016329352430465,1.112395377301878,0.9618947368421052,0.4160272661709713,0.0,0.949238845144357,50,1147,985,772026,no_split,wide,individual,1,0.4433009624481201
1,1.0,0.4240714341335954,0.3383275827573596,0.35890790930577327,0.37625253487185545,0.39210453726610206,0.4101855040333022,0.4303491983443878,0.4524803884527081,0.4809700637922558,0.5264306900285407,0.9773233548465837,0.9366492146596859,0.4160272661709713,0.0,0.949238845144357,50,1147,985,772026,no_split,wide,individual,1,0.4433009624481201
0,0.0,0.4430547201511053,0.3566765251259768,0.377145729366939,0.3928522774119805,0.4096399596751842,0.4260686913397292,0.44482814929291836,0.4664949621079196,0.49740194270180993,0.549423238838081,1.0371349384713413,0.9867317073170732,0.4593107354191168,0.0,0.9710050251256281,50,1147,275,772026,no_split,narrow,individual,1,0.4466369152069092
1,1.0,0.47657748738773015,0.37094603316297226,0.3951056074465079,0.4180658853417264,0.43942674716613056,0.4619334343963426,0.4852313515828805,0.5121384704019933,0.5478383799307016,0.6034863799405114,1.2196719896410448,0.9543005181347151,0.4593107354191168,0.0,0.9710050251256281,50,1147,275,772026,no_split,narrow,individual,1,0.4466369152069092
0,0.0,0.4691768977324119,0.3789813757550641,0.39964102217270675,0.41661252625630213,0.43406569332686423,0.4520654415745198,0.4727029544108104,0.496677538076584,0.5283004498403071,0.5809984886526521,1.052236343756436,0.9815238095238096,0.4770459178337567,0.0,0.9747474747474747,50,1147,808,772026,no_split,narrow,individual,1,0.44561147689819336
1,1.0,0.4859302953675331,0.38796900988359284,0.41217872551635587,0.4324549157263748,0.45128692041890367,0.47146972745224747,0.4924489605808861,0.5173906865362512,0.5502821300402178,0.5994806721240299,1.1733010793631007,0.9670967741935483,0.4770459178337567,0.0,0.9747474747474747,50,1147,808,772026,no_split,narrow,individual,1,0.44561147689819336
0,0.0,0.46142137937034405,0.37862770240171867,0.4016226177963999,0.4186583003535311,0.4346148151777222,0.45046985792964506,0.4675787096264725,0.48620728958883186,0.5125914152098701,0.5559696351873542,1.200137365584612,0.9618,0.4710182623814065,0.0,0.9332266666666666,50,1147,833,772026,no_split,narrow,individual,1,0.4414985179901123
1,1.0,0.48198612867976365,0.38969729877519116,0.4152286835074495,0.43572189260375654,0.4530229000679679,0.47160919421371217,0.49109157397893455,0.5131577889918068,0.5425281430025308,0.5904851155713581,1.2262986542843224,0.9005714285714286,0.4710182623814065,0.0,0.9332266666666666,50,1147,833,772026,no_split,narrow,individual,1,0.4414985179901123
0,0.0,0.5790478965019609,0.3884594368792074,0.4306223795112195,0.4647867483249874,0.49659071496818546,0.533076465087777,0.5772747225995506,0.6285571832769785,0.7049767271801989,0.8382458029650514,1.5573841951860807,0.9330890052356021,0.5878381667313458,0.0,0.9146276595744681,50,1147,837,772026,no_split,narrow,individual,1,0.4435093402862549
1,1.0,0.5969135268060081,0.40099219008517173,0.444595154269739,0.4821579528936124,0.5199673787774949,0.5588418700534772,0.603994380298224,0.6595771620240517,0.7305877348659212,0.8467364476528233,1.6398163263112393,0.8955675675675676,0.5878381667313458,0.0,0.9146276595744681,50,1147,837,772026,no_split,narrow,individual,1,0.4435093402862549
0,0.0,0.42371662887705175,0.3488715985054282,0.3694953697491614,0.38399137099596947,0.39761235941853884,0.4121626653121885,0.4273264364095308,0.4464483971226857,0.47006085524682895,0.5126078202857629,1.1406039438173545,0.9645833333333333,0.4323926487669435,0.0,0.9405347593582888,50,1147,845,772026,no_split,narrow,individual,1,0.44025731086730957
1,1.0,0.44154537304638974,0.35686489109914926,0.3794874015695862,0.3968587229879348,0.4128660020400912,0.42997281480728333,0.4487181222765527,0.46923356431867563,0.49661604630961587,0.5406347168697305,1.0071949807888607,0.9151648351648352,0.4323926487669435,0.0,0.9405347593582888,50,1147,845,772026,no_split,narrow,individual,1,0.44025731086730957
0,0.0,0.4638473229218432,0.359557083982563,0.3805459699761012,0.3994283633116332,0.4185262932416802,0.4381218311546642,0.46099338200890416,0.48954187839690083,0.5297340131849134,0.5998021277280842,1.4777233977399808,0.9760893854748603,0.48324299439088936,0.0,0.9538251366120218,50,1147,916,772026,no_split,narrow,individual,1,0.4409141540527344
1,1.0,0.501808904513666,0.3760829900085158,0.40454708920480575,0.43054034228129096,0.4551243584630136,0.4817032706779967,0.5099115286623618,0.5415890167904817,0.5856455701569899,0.6539107549651041,1.2331817244598202,0.9325133689839572,0.48324299439088936,0.0,0.9538251366120218,50,1147,916,772026,no_split,narrow,individual,1,0.4409141540527344
0,0.0,0.4076471051298191,0.33926649549711374,0.3561371475301115,0.3698879060937438,0.3822426024756718,0.3947560342440522,0.4085232674412656,0.42582367035760965,0.45025482149491586,0.4923970724521472,1.0035102339582787,0.964406779661017,0.42236244954867497,0.0,0.9259620596205962,50,1147,985,772026,no_split,narrow,individual,1,0.44458508491516113
1,1.0,0.4359281576848077,0.34924214454950314,0.3711517704452249,0.3879642863556656,0.4038151579015689,0.4211742939724589,0.4416031002569785,0.4638142884439664,0.49382697507254597,0.538915302125556,0.9130702425487175,0.8905208333333333,0.42236244954867497,0.0,0.9259620596205962,50,1147,985,772026,no_split,narrow,individual,1,0.44458508491516113
0,0.0,0.40712605964858734,0.33485888613586084,0.3524082763871696,0.36705643463769994,0.3807856451061424,0.393521260079336,0.40775562603684046,0.4249289963117791,0.4506929544865405,0.4936740787096906,0.9149414485330322,0.9796590909090909,0.42696400626947484,0.0,0.9267368421052632,50,1147,1108,772026,no_split,narrow,individual,1,0.4515416622161865
1,1.0,0.44407909747180907,0.3523829144833654,0.3771231150711078,0.3971778300861414,0.41538730716197647,0.4334224237960205,0.4536252493712395,0.47633427821535135,0.5039188915022946,0.5451971894860556,1.000359821890682,0.881078431372549,0.42696400626947484,0.0,0.9267368421052632,50,1147,1108,772026,no_split,narrow,individual,1,0.4515416622161865
0,0.0,0.4355914359650616,0.3483343965875136,0.3714541486766897,0.38971511983819385,0.4048677999428586,0.4222152678655203,0.4389301056684425,0.4597917831867673,0.48939691505049326,0.5401148501933595,1.130505755050273,0.9557788944723619,0.4486506856696386,0.0,0.9077641277641277,50,1147,1507,772026,no_split,narrow,individual,1,0.4516270160675049
1,1.0,0.4611448716850752,0.363029725868106,0.39069890915960054,0.41183087603542184,0.4312390500597985,0.4499984095497971,0.47070052564656273,0.4936586843859538,0.524854894438101,0.5723825322875872,0.9963135230328786,0.8618269230769231,0.4486506856696386,0.0,0.9077641277641277,50,1147,1507,772026,no_split,narrow,individual,1,0.4516270160675049
0,0.0,0.455156157359391,0.3627454247421325,0.385908024591289,0.4052492622078192,0.4227583137149408,0.4401108166539949,0.4601453739143979,0.48264230613436354,0.5138562819125644,0.5660353622006461,1.2905001190946195,0.9732258064516129,0.46401363041984495,0.0,0.9608376963350785,50,1147,1538,772026,no_split,narrow,individual,1,0.44678497314453125
1,1.0,0.4724191915894594,0.37089494996397276,0.3987505754496785,0.4188263891841441,0.4383194797399107,0.45944036002505917,0.48047948329250484,0.505698573893462,0.5385396394964123,0.589263830706335,1.1870749894427122,0.9490816326530612,0.46401363041984495,0.0,0.9608376963350785,50,1147,1538,772026,no_split,narrow,individual,1,0.44678497314453125
0,0.0,0.4707676237792707,0.37707719320737637,0.3991406621384631,0.41611262940101934,0.4321777152887872,0.44894510884027905,0.4691762149658302,0.49366280680830504,0.5295322623919174,0.5908489222951133,1.435098946378151,0.9922340425531915,0.4937715470706794,0.0,0.9649180327868853,50,1147,1582,772026,no_split,narrow,individual,1,0.44875097274780273
1,1.0,0.5180678256031785,0.4048520591393199,0.4360452774166783,0.4617170384837468,0.4850361569123239,0.5069023281216851,0.5295340864177331,0.5564419122308748,0.5901281903998047,0.6446717475917544,1.0512267000364952,0.936067415730337,0.4937715470706794,0.0,0.9649180327868853,50,1147,1582,772026,no_split,narrow,individual,1,0.44875097274780273
0,0.0,0.442587585141303,0.35138689029627107,0.3713138349787445,0.38688447218110894,0.4020845598099646,0.4177145228095789,0.43696705597397406,0.46081528644893666,0.49767327131119105,0.5671959743241383,1.1813758242051609,0.984824120603015,0.46836980422198987,0.0,0.9287218045112782,50,1147,1583,772026,no_split,narrow,individual,1,0.44890570640563965
1,1.0,0.49402311220727335,0.3824273125288811,0.41352497276261263,0.43864541982051836,0.4613070697645423,0.48350957921158444,0.5066707105689541,0.5332314614887159,0.5650059732584406,0.6139441500128422,1.0715142034339487,0.8729,0.46836980422198987,0.0,0.9287218045112782,50,1147,1583,772026,no_split,narrow,individual,1,0.44890570640563965
0,0.0,0.5565154063397701,0.4099572938106218,0.43779503640750017,0.461382783633919,0.4869930264141241,0.5156076918535827,0.5511421166750315,0.5950958700768457,0.6527989868745786,0.7572119124908434,1.53510186497754,0.958688524590164,0.5693619799539655,0.0,0.9337912087912088,50,1147,1597,772026,no_split,narrow,individual,1,0.44889330863952637
1,1.0,0.5823505046578206,0.4248034233253745,0.4604213214280132,0.4920781301163547,0.5234110275902987,0.5541581082022403,0.587870958645871,0.6287894108363172,0.6830919997340458,0.776458047431652,1.542790866620307,0.9086187845303867,0.5693619799539655,0.0,0.9337912087912088,50,1147,1597,772026,no_split,narrow,individual,1,0.44889330863952637
0,0.0,0.4143922210598411,0.33164010127740534,0.3529132952179558,0.36890857028994495,0.3840625298276108,0.3993416055869546,0.41771185278866296,0.4372183829581896,0.46651534942789846,0.5148846166135183,1.080989956945698,0.9869945355191256,0.4349187119482348,0.0,0.9629333333333333,50,1147,1601,772026,no_split,narrow,individual,1,0.45179152488708496
1,1.0,0.45448302357623516,0.3479882460882438,0.37607055526947814,0.3988658691912978,0.42040766169906046,0.44210633226749196,0.46561837863371525,0.492472374645287,0.5265648654954636,0.5752893104457798,1.0105744323135726,0.94,0.4349187119482348,0.0,0.9629333333333333,50,1147,1601,772026,no_split,narrow,individual,1,0.45179152488708496
0,0.0,0.4949041912044133,0.37357991476526964,0.4013182868141981,0.42410618169854375,0.444963630519229,0.46791265553882666,0.4932975591615163,0.5257810972654404,0.5719629134272568,0.6544935063692617,1.3662409799872388,0.9776237623762376,0.5122778349791961,0.0,0.949516129032258,50,1147,1614,772026,no_split,narrow,individual,1,0.4443480968475342
1,1.0,0.5329218116998206,0.3971483043973508,0.43015191808172665,0.45971368188270567,0.48694089162867854,0.5146098282398346,0.5428212757161608,0.5759475306677458,0.6198329511317219,0.6902217379274269,1.3966936106434427,0.9161176470588235,0.5122778349791961,0.0,0.949516129032258,50,1147,1614,772026,no_split,narrow,individual,1,0.4443480968475342
0,0.0,0.4697281097384726,0.3775009908777951,0.4041128999240441,0.42398674363641725,0.44192048400258,0.4601514602091466,0.4788965986289631,0.5007739391652526,0.528019850942079,0.57312469743784,1.0620021355514326,0.9866298342541436,0.4877768528722287,0.0,0.9653157894736842,50,1147,1638,772026,no_split,narrow,individual,1,0.4518399238586426
1,1.0,0.5041930463757957,0.39664129642239776,0.4270091551263104,0.45163326803250275,0.4741801984436292,0.4955032946579043,0.5173846637781139,0.5428230563705218,0.5752429611466254,0.624309824114442,1.1148839973719817,0.9459296482412061,0.4877768528722287,0.0,0.9653157894736842,50,1147,1638,772026,no_split,narrow,individual,1,0.4518399238586426
0,0.0,0.40073691046493853,0.32906004366204933,0.3473983677566193,0.36125246239424,0.3745812615994765,0.38878035786438514,0.4031429275982744,0.42051004328327035,0.4447520880729145,0.48799702625571656,1.0861459677489433,0.9601020408163266,0.4125589868694174,0.0,0.9182749326145553,50,1147,1657,772026,no_split,narrow,individual,1,0.45232510566711426
1,1.0,0.42579971244243364,0.33910783419625784,0.3611650905726656,0.37894686451319903,0.39606989795405645,0.41361926231550056,0.43258255486115416,0.4555970182355614,0.4830109910037645,0.5295513766599442,1.1950962652452217,0.8714285714285714,0.4125589868694174,0.0,0.9182749326145553,50,1147,1657,772026,no_split,narrow,individual,1,0.45232510566711426
0,0.0,0.4605617456351898,0.37677978173483206,0.39802300114190875,0.4138825815075242,0.4294963557033414,0.44464908234223044,0.4617549442065655,0.4833095789300062,0.5134724828764166,0.5630450250094898,1.0412847202248208,0.9849230769230769,0.47793167367999845,0.0,0.9659390862944163,50,1147,1663,772026,no_split,narrow,individual,1,0.4549903869628906
1,1.0,0.4949524574424994,0.39569873672505435,0.4212262949881859,0.4434350430425506,0.463988065833804,0.4836644468200198,0.5050018256291645,0.5297527303032893,0.5604103158906193,0.6076295631776062,1.0010629326742257,0.9473366834170854,0.47793167367999845,0.0,0.9659390862944163,50,1147,1663,772026,no_split,narrow,individual,1,0.4549903869628906
0,0.0,0.503202041798818,0.3966710747560447,0.4224551666413015,0.4438325040852523,0.463788772233394,0.48472592271081894,0.5053341556490432,0.532362814665026,0.5715850061427976,0.6350002565006326,1.2387429704403112,0.9680662983425414,0.5123822600069877,0.0,0.9527071823204419,50,1147,1761,772026,no_split,narrow,individual,1,0.4574253559112549
1,1.0,0.5215624782151576,0.40572463169104156,0.4347163162564025,0.45852770230883216,0.48054378009882576,0.5030280718532452,0.5289578165508495,0.5595848599456518,0.5986840143637879,0.6581816704861426,1.4246789674466267,0.9373480662983426,0.5123822600069877,0.0,0.9527071823204419,50,1147,1761,772026,no_split,narrow,individual,1,0.4574253559112549
0,0.0,0.45185937717021035,0.35318729330800736,0.37828592050463583,0.3977790406838552,0.4158891082038321,0.43491395970004143,0.4558620319235171,0.480448047254727,0.5121005415676515,0.5697663601003841,1.2894198204634406,0.962391304347826,0.46444294406782294,0.0,0.9368648648648649,50,1147,1768,772026,no_split,narrow,individual,1,0.4578096866607666
1,1.0,0.47689120379449346,0.36274527109869115,0.39181052268338534,0.41571330219076713,0.4370981631018797,0.4595532847032651,0.48371548626907196,0.5136226631641232,0.5520117434977323,0.6139052853821524,1.2021581610096528,0.9116129032258065,0.46444294406782294,0.0,0.9368648648648649,50,1147,1768,772026,no_split,narrow,individual,1,0.4578096866607666
0,0.0,0.37527777314473115,0.2998693957419805,0.3208353389151947,0.33613374288090275,0.3504523330647899,0.3654299619817568,0.3810321853408469,0.3987845680737087,0.4218739427879267,0.46185338267198806,0.9677927905466227,0.9641340782122905,0.39038983742903033,0.0,0.9229946524064171,50,1147,1813,772026,no_split,narrow,individual,1,0.4571352005004883
1,1.0,0.4042619374643614,0.3114078299183759,0.33730248966810245,0.3570869122890318,0.37474589893727706,0.39232300729638087,0.4133438417948306,0.4362538865974661,0.46442297370643404,0.5107363821720031,0.9190104779033065,0.8852307692307693,0.39038983742903033,0.0,0.9229946524064171,50,1147,1813,772026,no_split,narrow,individual,1,0.4571352005004883
0,0.0,0.39991487284762983,0.3164546742487347,0.3354073137790206,0.3510099805595397,0.3652885456420794,0.380979642931661,0.3985682874683413,0.4203462869197323,0.4527049094313634,0.5079599499741217,0.9796018393341192,0.983609756097561,0.41774224552285383,0.0,0.9588118811881188,50,1147,1821,772026,no_split,narrow,individual,1,0.4539790153503418
1,1.0,0.4361071269219538,0.33143391052277776,0.35667010150531653,0.37863866660550477,0.3998819997829685,0.4210147994855501,0.4436127494507339,0.4702118567656322,0.5048414760248456,0.560396389681317,1.0553487879370538,0.9332663316582914,0.41774224552285383,0.0,0.9588118811881188,50,1147,1821,772026,no_split,narrow,individual,1,0.4539790153503418
0,0.0,0.39235871950839635,0.31669686208240266,0.33293590715734606,0.3472980071221643,0.3613548292318511,0.37546067718038456,0.3921093942059012,0.412495240941556,0.4418104656187733,0.4900462360735808,0.8893315346652674,0.9827624309392266,0.4024460164923381,0.0,0.9693085106382979,50,1147,3286,772026,no_split,narrow,individual,1,0.46224379539489746
1,1.0,0.4118090972825609,0.32496461319919107,0.3469017472023296,0.3649330997910029,0.3809984317116391,0.39926031404903817,0.4186526078815671,0.440284362223181,0.4694613215680856,0.5137804480177682,0.8790688836922383,0.9568205128205128,0.4024460164923381,0.0,0.9693085106382979,50,1147,3286,772026,no_split,narrow,individual,1,0.46224379539489746
0,0.0,0.4748325984277405,0.3784524882691234,0.4021711073409456,0.4208824240967158,0.4392599150567967,0.45783832225042276,0.4782807408481317,0.5022447859874262,0.5342297910072628,0.5938454859919802,1.3009619464180748,0.9836363636363636,0.4938177589717751,0.0,0.9576923076923077,50,1147,3292,772026,no_split,narrow,individual,1,0.46324586868286133
1,1.0,0.5115911007576797,0.39539981811350355,0.4247552484215417,0.4502311120276244,0.47340070057912287,0.49745828246052204,0.5237185028664196,0.5521239611097264,0.5884830738303914,0.6448110516150825,1.2483533693965425,0.933404255319149,0.4938177589717751,0.0,0.9576923076923077,50,1147,3292,772026,no_split,narrow,individual,1,0.46324586868286133
0,0.0,0.3955352239604282,0.3254353245654033,0.34525597794715945,0.3599251013026033,0.37310837157348253,0.38619597420352314,0.39953765702894595,0.41590145331451667,0.43676749954145744,0.47468939844903474,0.9176792833056235,0.9879144385026738,0.4176425646659167,0.0,0.9295064935064935,50,1147,3487,772026,no_split,narrow,individual,1,0.46628880500793457
1,1.0,0.43852171977665594,0.34755459277195566,0.37369716503958006,0.3937498364762461,0.41222568573056084,0.43151466822168183,0.45073756112900076,0.473022196892673,0.4996470840867401,0.5372567300861055,0.8495397055496738,0.8743434343434343,0.4176425646659167,0.0,0.9295064935064935,50,1147,3487,772026,no_split,narrow,individual,1,0.46628880500793457
0,0.0,0.41023519189165464,0.35426732544074296,0.37145072140213775,0.38387524758306524,0.3947117982881405,0.40510594698884206,0.4170503099748754,0.42967747764914327,0.4455269950419254,0.47046837056168894,0.8417333460735833,0.9739303482587065,0.42038292885583334,0.0,0.9299492385786802,50,1147,3580,772026,no_split,narrow,individual,1,0.4651668071746826
1,1.0,0.4309512974040194,0.3642446607271162,0.38323595516312126,0.39759713008243885,0.41081504272712055,0.424645256531559,0.438885433273357,0.45511670168312446,0.47505932438478454,0.5065988444679956,0.7287464832062615,0.8841450777202072,0.42038292885583334,0.0,0.9299492385786802,50,1147,3580,772026,no_split,narrow,individual,1,0.4651668071746826
0,0.0,0.48208172183697323,0.3796716255093285,0.4019156773607834,0.42077434557473864,0.43808088488784974,0.45683949898396736,0.4788432873151993,0.5070441490868715,0.5477102840084879,0.6206378776662268,1.2095146150365987,0.9302150537634408,0.49138737360088863,0.0,0.901657458563536,50,1147,3625,772026,no_split,narrow,individual,1,0.46675539016723633
1,1.0,0.5012217555786629,0.3858788378988828,0.4136115840485778,0.43500110041006707,0.45837592106984215,0.47971439116802095,0.5049737622133044,0.5360512898333328,0.5775924255622953,0.6427190899594014,1.400606883214335,0.8714772727272727,0.49138737360088863,0.0,0.901657458563536,50,1147,3625,772026,no_split,narrow,individual,1,0.46675539016723633
0,0.0,0.5320485143876599,0.42663329174556885,0.45394224134914024,0.4752567293733305,0.4960077515063493,0.5163848370885745,0.5382417896044415,0.564751996156678,0.598139399731295,0.6561612908526548,1.4437189053633557,0.9903370786516854,0.5534531891066141,0.0,0.9778861788617886,50,1147,3754,772026,no_split,narrow,individual,1,0.46962952613830566
1,1.0,0.5734010011483621,0.44625997229491426,0.4804473386445949,0.5095969541987919,0.5348370413114854,0.5611795703111602,0.5887042500992388,0.6191862207376201,0.6570212231008403,0.713252854578808,1.256790231274463,0.966282722513089,0.5534531891066141,0.0,0.9778861788617886,50,1147,3754,772026,no_split,narrow,individual,1,0.46962952613830566
0,0.0,0.41241261138962093,0.3395734642499344,0.35952470155792043,0.37465137786733377,0.38886135310353526,0.40254877477120166,0.41767249919074667,0.43568835334510153,0.45861338947338137,0.4954477944490205,0.9396478882254221,0.9927659574468085,0.4265265281470167,0.0,0.9766839378238342,50,1147,3910,772026,no_split,narrow,individual,1,0.46242260932922363
1,1.0,0.4399276208257561,0.3557679054812323,0.3799331842122192,0.39871245734398925,0.41508545203017727,0.43222430715083515,0.4492424997616706,0.4693003847074124,0.4948783099137869,0.5337872628623037,0.897364037992145,0.9614141414141414,0.4265265281470167,0.0,0.9766839378238342,50,1147,3910,772026,no_split,narrow,individual,1,0.46242260932922363
0,0.0,0.4024896228063363,0.3395464130263022,0.3527252543358608,0.36474654262261874,0.3760413425732216,0.38830507972571515,0.4016300560688623,0.41873895884249646,0.442995693301336,0.4833623965885741,0.824555414714682,0.9866298342541436,0.4146916212714717,0.0,0.971,50,1147,4222,772026,no_split,narrow,individual,1,0.45961904525756836
1,1.0,0.4257899213829768,0.35085215511050666,0.3693904694540495,0.3853238515834579,0.4005793278937404,0.41588504474874405,0.43296120589788545,0.45137665874991606,0.475498568674694,0.5132796492479077,0.8923851859398273,0.9567839195979899,0.4146916212714717,0.0,0.971,50,1147,4222,772026,no_split,narrow,individual,1,0.45961904525756836
0,0.0,0.4622304252641671,0.35431206246949193,0.3819597298818752,0.4036929851139425,0.42229951610068195,0.44110569099125796,0.4620783541211963,0.48996300609873167,0.527099046634858,0.5951457117561684,1.2603819209052658,0.9362626262626262,0.4751723317728847,0.0,0.8867002518891688,50,1147,4264,772026,no_split,narrow,individual,1,0.45793581008911133
1,1.0,0.4880492035755285,0.3676765782187974,0.3983025843338869,0.4231326017517321,0.4454581866021763,0.4704966577067376,0.49714988897725865,0.5266656841549758,0.5683026522048013,0.6311333815448692,1.3059282457042019,0.8373869346733669,0.4751723317728847,0.0,0.8867002518891688,50,1147,4264,772026,no_split,narrow,individual,1,0.45793581008911133
0,0.0,0.42749277400517993,0.35951667766140577,0.3780403752257447,0.3921978289685724,0.40597304986835053,0.4184991418319618,0.4327765163615398,0.4496170788089305,0.4712649671132459,0.5061825241895379,1.0022940725024074,0.9887830687830688,0.4429530500544578,0.0,0.972445652173913,50,1147,5281,772026,no_split,narrow,individual,1,0.46324706077575684
1,1.0,0.45927702867632103,0.37381922815964097,0.39738203193381716,0.4152903292537516,0.433008069171606,0.45037969753523033,0.46920200176891325,0.48934859321068525,0.5167939666710046,0.5584665639197215,0.8317884252706108,0.955195530726257,0.4429530500544578,0.0,0.972445652173913,50,1147,5281,772026,no_split,narrow,individual,1,0.46324706077575684
0,0.0,0.4573119284821575,0.37147218839733515,0.39331373617289817,0.41059100230789786,0.42630148814152113,0.44238097948488053,0.46009703148168923,0.4820738662444461,0.5119347885779617,0.5614176569641257,1.0222803466933235,0.995,0.4765411029633908,0.0,0.9796756756756757,50,1147,5332,772026,no_split,narrow,individual,1,0.46117138862609863
1,1.0,0.49556351212762134,0.3975681213366203,0.4250230736530168,0.446479263846902,0.46763830668890677,0.4873723266025299,0.5078635222254824,0.5306557289658609,0.5592460212047163,0.6037921667468883,0.9942797356433651,0.964516129032258,0.4765411029633908,0.0,0.9796756756756757,50,1147,5332,772026,no_split,narrow,individual,1,0.46117138862609863
0,0.0,0.4522604959032245,0.3718298360268408,0.3947358485508988,0.41224790665198535,0.4274680421455153,0.4427554161366755,0.45872901720327103,0.4772834292779134,0.5020517636673463,0.5434425032000978,0.9278942940571346,0.9808121827411167,0.4671180967571888,0.0,0.954,50,1147,5575,772026,no_split,narrow,individual,1,0.4574885368347168
1,1.0,0.48228362716253054,0.3881293867774487,0.41374468328638836,0.4353074400640497,0.45510142015728106,0.4741665012440176,0.49335432438122717,0.5166620145861104,0.5458835379242377,0.5872335449542897,0.9303186786887145,0.9266321243523316,0.4671180967571888,0.0,0.954,50,1147,5575,772026,no_split,narrow,individual,1,0.4574885368347168
0,0.0,0.44798281678108204,0.36224111865494196,0.384293273469396,0.40105638604761995,0.4169552869173404,0.43288352091801585,0.4505763828050723,0.47199892661922066,0.5022620639284238,0.5509433035523138,1.0323181283578433,0.9579274611398964,0.4595639907855865,0.0,0.9179081632653061,50,1147,5731,772026,no_split,narrow,individual,1,0.45191287994384766
1,1.0,0.47079598366432696,0.3753160292925962,0.40101261905600716,0.42060023248529604,0.43947989775586116,0.4590131630324549,0.47991449140683223,0.5037200544437518,0.533939147990862,0.5826855299812607,1.1843395482580121,0.8790954773869347,0.4595639907855865,0.0,0.9179081632653061,50,1147,5731,772026,no_split,narrow,individual,1,0.45191287994384766
0,0.0,0.4397919074355729,0.36557698820664936,0.3857808933812988,0.4017009922184715,0.41655001665318153,0.4302938693268894,0.4459616166372727,0.4647952528520888,0.4869455034042625,0.5211284214383539,1.1041763028174945,0.9954347826086957,0.46321059822595134,0.0,0.9617438692098093,50,1147,5761,772026,no_split,narrow,individual,1,0.45539236068725586
1,1.0,0.48675726000425534,0.39346979525625725,0.42031690011169354,0.4422203696806575,0.46110075323089766,0.480022445082129,0.5000745375138009,0.5217473710496793,0.5475335281681949,0.5886794247336625,0.9999660399757891,0.9278688524590164,0.46321059822595134,0.0,0.9617438692098093,50,1147,5761,772026,no_split,narrow,individual,1,0.45539236068725586
0,0.0,0.4335804411555218,0.3314602157586557,0.3563234477186417,0.37665554639510135,0.39503625829810185,0.4124909465472413,0.43439225315884944,0.4598438731133739,0.49725428362198776,0.560428256871755,1.1625328306883647,0.9275,0.44384044238846093,0.0,0.8994037940379404,50,1147,5803,772026,no_split,narrow,individual,1,0.45060229301452637
1,1.0,0.45241596580703697,0.3399895636367907,0.36836631204503467,0.39030733826195907,0.4116567747357078,0.43318053359871117,0.45850646797946765,0.4885409646749599,0.5251613734575492,0.5878601776538129,1.1946316257727956,0.8759203980099503,0.44384044238846093,0.0,0.8994037940379404,50,1147,5803,772026,no_split,narrow,individual,1,0.45060229301452637
0,0.0,0.501256285615725,0.37768274004235663,0.40861110828755365,0.4316580462840211,0.4548777999725352,0.47814022288407604,0.5037065211486632,0.5352588322000679,0.5772296326332418,0.6510550543248247,1.3898118133240724,0.9612935323383085,0.5193436874312701,0.0,0.9203617571059431,50,1147,5815,772026,no_split,narrow,individual,1,0.45575428009033203
1,1.0,0.5388897506835527,0.39760097750177104,0.43533891475816744,0.4640677076635033,0.48984606688370674,0.51837122543014,0.5475588642163381,0.5843995302979107,0.6306509106774694,0.7061739980496329,1.5453229446476584,0.8761290322580645,0.5193436874312701,0.0,0.9203617571059431,50,1147,5815,772026,no_split,narrow,individual,1,0.45575428009033203
0,0.0,0.4182468366761043,0.3537485923499091,0.3695895322119407,0.38169258843033393,0.39421052228476866,0.4061820745759692,0.4200329047405928,0.4358473589688293,0.4569130261339258,0.49588126720205333,0.8688785234525404,0.9923595505617977,0.44284307004590734,0.0,0.967574931880109,50,1147,6055,772026,no_split,narrow,individual,1,0.45680975914001465
1,1.0,0.46600777660582776,0.3737511603498085,0.3979068766072405,0.41802145779297367,0.43756086156833335,0.45730306343089816,0.47649538689174176,0.49919304740155407,0.5264647546755064,0.5689721147814547,1.0236239653540204,0.9442328042328042,0.44284307004590734,0.0,0.967574931880109,50,1147,6055,772026,no_split,narrow,individual,1,0.45680975914001465
0,0.0,0.4758541156812724,0.36368326179898464,0.38705354614910636,0.4081803352788015,0.4273010566858144,0.4480820958042444,0.47287194970874796,0.5048044435062101,0.5476413519920141,0.6249517779384445,1.4454142435022248,0.945,0.4827759893115425,0.0,0.9239344262295082,50,1147,6109,772026,no_split,narrow,individual,1,0.44954490661621094
1,1.0,0.49075650243820684,0.37101045235571406,0.39755512606600385,0.42045552313524187,0.4438543523619805,0.46684636764022386,0.4935282215921707,0.5277344601645266,0.5711341332266315,0.6389293062171142,1.445783980200568,0.8996470588235295,0.4827759893115425,0.0,0.9239344262295082,50,1147,6109,772026,no_split,narrow,individual,1,0.44954490661621094
0,0.0,0.4001226558674704,0.334982322856127,0.34989917724261854,0.3620596576242144,0.3735430761289121,0.38483346681101177,0.39834828968185676,0.41418224244800383,0.4369239751302871,0.4846745583691197,1.054662188719156,0.9864150943396226,0.42025694639861844,0.0,0.9280575539568345,50,1147,6214,772026,no_split,narrow,individual,1,0.44927358627319336
1,1.0,0.44107874928936674,0.3543084784784272,0.377528675306968,0.3969539576575826,0.4148616378992975,0.43159588764779827,0.4503593573382887,0.47090465493447575,0.497470481650991,0.5370818844118563,0.9338828766239531,0.8677073170731707,0.42025694639861844,0.0,0.9280575539568345,50,1147,6214,772026,no_split,narrow,individual,1,0.44927358627319336
0,0.0,0.45787507763968616,0.36016433450328417,0.3848494719780819,0.40317186783417747,0.4207125814879157,0.43949236729719965,0.46094125277560244,0.48584090801510255,0.5198040340887763,0.5757244410320816,1.5412719437971378,0.934468085106383,0.46240362693448706,0.0,0.9255702917771883,50,1147,6253,772026,no_split,narrow,individual,1,0.4532194137573242
1,1.0,0.46690821565100843,0.3662527340496036,0.3923932892848405,0.41196512311263356,0.4307168668744918,0.4508947005569749,0.4722209749944252,0.49863680285798484,0.5334985607226983,0.5884200345468252,1.4418168453781404,0.9167195767195767,0.46240362693448706,0.0,0.9255702917771883,50,1147,6253,772026,no_split,narrow,individual,1,0.4532194137573242
0,0.0,0.4612119498024935,0.37772917620125385,0.4014556387038812,0.4206978705138171,0.43674251984971296,0.4524813416788045,0.4681466909369578,0.4883632132843833,0.5133175625800831,0.5526927096928776,0.9439993778122654,0.9764640883977901,0.4761366425571626,0.0,0.9413586956521739,50,1147,6262,772026,no_split,narrow,individual,1,0.4580681324005127
1,1.0,0.49058246816462314,0.39612250764399265,0.42335587148165454,0.44417946524660906,0.46349126936452606,0.48209496276118324,0.5018040800339606,0.5235412508797498,0.5524738479098187,0.5959648573643971,1.1183199593577107,0.907379679144385,0.4761366425571626,0.0,0.9413586956521739,50,1147,6262,772026,no_split,narrow,individual,1,0.4580681324005127
0,0.0,0.5057630120501336,0.4138485521566498,0.4354804783261719,0.45309547958857904,0.47086271071883,0.4885984877425689,0.5083132194415985,0.5331501389142211,0.5668282514409119,0.619052572087068,1.2048547872719102,0.9885561497326203,0.5174399644992679,0.0,0.975108695652174,50,1147,6361,772026,no_split,narrow,individual,1,0.4587595462799072
1,1.0,0.5295039982450586,0.4292906907219287,0.4563442368686659,0.4780449116272621,0.4977282863851146,0.5168822229205741,0.5389524702503793,0.5625190474649356,0.5957500109377937,0.6470320424235658,1.0537772448566813,0.9612154696132597,0.5174399644992679,0.0,0.975108695652174,50,1147,6361,772026,no_split,narrow,individual,1,0.4587595462799072
0,0.0,0.4170490893559034,0.34324059392442163,0.36472989863568306,0.38051717757711134,0.3941564343881069,0.40818118513293944,0.4232912436949804,0.439932676087508,0.4634973016650822,0.5004453370788718,0.9206339583570141,0.9755191256830601,0.42671573136471985,0.0,0.9490526315789474,50,1147,6427,772026,no_split,narrow,individual,1,0.4630405902862549
1,1.0,0.4356954038906761,0.35572854073752735,0.3778576004787755,0.3963123239004806,0.41202754178082834,0.42821105047091046,0.44505544259138263,0.4635012698053046,0.4878568593136431,0.525172942119688,0.9444120010548231,0.9244670050761421,0.42671573136471985,0.0,0.9490526315789474,50,1147,6427,772026,no_split,narrow,individual,1,0.4630405902862549
0,0.0,0.46618228401432754,0.38593314310036764,0.4043511447694503,0.41967489492878696,0.4345698217028682,0.45005325638924576,0.467276805637965,0.48891315974578003,0.520173674365093,0.567539949193509,1.0005871805670368,0.9735078534031414,0.4740848304143512,0.0,0.954353562005277,50,1147,6583,772026,no_split,narrow,individual,1,0.46797609329223633
1,1.0,0.482113481278205,0.3965799770163015,0.4178620823681905,0.43610638869005425,0.45165586967309634,0.4684787031062211,0.4876692969140016,0.5089196449674515,0.5369581026466198,0.5832013108201168,1.2071992170083112,0.9348936170212766,0.4740848304143512,0.0,0.954353562005277,50,1147,6583,772026,no_split,narrow,individual,1,0.46797609329223633
0,0.0,0.4433375814390164,0.36083331956457243,0.38123786858514697,0.3982503461465122,0.4141869755547782,0.42962125979168103,0.44641414616717223,0.46636427143205683,0.4930745958318364,0.542260237848622,1.0183523496303104,0.9811282051282051,0.46226604179010583,0.0,0.9453333333333334,50,1147,6634,772026,no_split,narrow,individual,1,0.4638209342956543
1,1.0,0.48119450214119514,0.37778736606603797,0.4051982025654004,0.4281350503094348,0.44843008466221407,0.46953624183611975,0.4922176257966946,0.5174703734982385,0.5506288908406807,0.5993085627802797,0.9959955444357359,0.9095384615384615,0.46226604179010583,0.0,0.9453333333333334,50,1147,6634,772026,no_split,narrow,individual,1,0.4638209342956543
0,0.0,0.46023979212624777,0.3829528992600513,0.40398346019636533,0.41997300307101426,0.4344418008342122,0.44822956716312534,0.4632222363412875,0.48171652710408264,0.5070113394040996,0.5494731238979828,1.0150433775669672,0.9857894736842105,0.4844950724374859,0.0,0.9342933333333333,50,1147,6844,772026,no_split,narrow,individual,1,0.46695852279663086
1,1.0,0.509405900865244,0.4057350504084642,0.43518683162350924,0.45757161413684283,0.47794176733186916,0.4990227351553549,0.5206072923034034,0.5452124807588342,0.5788503817012809,0.6268126473550131,1.0138635104924152,0.8814054054054054,0.4844950724374859,0.0,0.9342933333333333,50,1147,6844,772026,no_split,narrow,individual,1,0.46695852279663086
0,0.0,0.44402044483380604,0.3590866084328163,0.38041367222793276,0.39685045626942095,0.4121633828069534,0.42793293823217904,0.4459158646634136,0.4658294798114854,0.4960628522723518,0.5463150143899231,1.1483953386465295,0.9742076502732241,0.4622166803021279,0.0,0.9373841961852861,50,1147,7624,772026,no_split,narrow,individual,1,0.46764302253723145
1,1.0,0.48031402318638267,0.3775808193404828,0.40445195023743774,0.42554180544892406,0.44568468325637933,0.46677799966578504,0.48858834051862915,0.5161399530990742,0.5502979175374388,0.6010579693395717,1.1852845699402281,0.9007608695652174,0.4622166803021279,0.0,0.9373841961852861,50,1147,7624,772026,no_split,narrow,individual,1,0.46764302253723145
0,0.0,0.4089844756561919,0.3441846174502374,0.35998131186209237,0.37221406704554494,0.3831541927846321,0.39528552583921905,0.4082906572985235,0.42452428674627257,0.44732769910778597,0.48830588957873017,1.0010043430540638,0.9756149732620321,0.42858464075152725,0.0,0.9252741514360313,50,1147,7756,772026,no_split,narrow,individual,1,0.4770348072052002
1,1.0,0.4472847982659542,0.3594711738959354,0.3814331221389208,0.3997603031820345,0.4179024210127833,0.4352265255423568,0.45459795861177604,0.47666727934487985,0.5065264346921445,0.5488147497169288,0.9271487709392122,0.8772448979591837,0.42858464075152725,0.0,0.9252741514360313,50,1147,7756,772026,no_split,narrow,individual,1,0.4770348072052002
0,0.0,0.43427862463472233,0.3397550813319091,0.3650966702751736,0.38501305972838473,0.40354308046290394,0.4215874614262488,0.44059776595766614,0.4637050203764188,0.4940019135826007,0.5442263252744479,0.9650835443957387,0.9821875,0.4444214061049173,0.0,0.9654545454545455,50,1147,7768,772026,no_split,narrow,individual,1,0.45366930961608887
1,1.0,0.45512148326028773,0.35147634437228265,0.38008121994366384,0.40195013605735735,0.4237511378181599,0.4440900157821081,0.465615446719078,0.4909023094165046,0.5221229694245275,0.5724839475445345,1.1384111673653587,0.9478021978021978,0.4444214061049173,0.0,0.9654545454545455,50,1147,7768,772026,no_split,narrow,individual,1,0.45366930961608887
0,0.0,0.4020070336898975,0.31766551488282746,0.33951143989250177,0.35600611616851663,0.37152403669606754,0.38631811076886025,0.40302928631293433,0.42368912186960467,0.45010629154332765,0.5021654820054631,1.2990402944216006,0.9703743315508021,0.42227286920260454,0.0,0.9166666666666666,50,1147,7807,772026,no_split,narrow,individual,1,0.45297718048095703
1,1.0,0.44275779482896255,0.3359546368561391,0.3631229157997503,0.38569560316368023,0.4065345944487726,0.4282556781912541,0.4510308335566379,0.4782185419197178,0.5150519697583243,0.5674187226152245,1.0444923643224662,0.8623783783783784,0.42227286920260454,0.0,0.9166666666666666,50,1147,7807,772026,no_split,narrow,individual,1,0.45297718048095703
0,0.0,0.40094373700168773,0.3289964391778249,0.34472534660698256,0.3582624770631938,0.3709461778703035,0.3846128219712358,0.40034405069135726,0.41860874303838586,0.44552415464366213,0.4942165484386693,0.9282318447230157,0.9843956043956044,0.4163890019408086,0.0,0.9522991689750693,50,1147,7813,772026,no_split,narrow,individual,1,0.44881105422973633
1,1.0,0.43209312606885325,0.34393567357603416,0.3672820209781903,0.3862468512343493,0.4034850538590714,0.4211073425976549,0.4400306815120815,0.4617398421464516,0.4895589016703365,0.533036982613262,0.9772667880973338,0.9196648044692738,0.4163890019408086,0.0,0.9522991689750693,50,1147,7813,772026,no_split,narrow,individual,1,0.44881105422973633
0,0.0,0.4108473652999682,0.350368374620641,0.36869888878706114,0.3817862104959039,0.3935148394512063,0.4053229867320139,0.41709226091562407,0.43008586602614157,0.4471532920928114,0.47543976159470536,0.8897563666639623,0.9965957446808511,0.4350562744557189,0.0,0.959059405940594,50,1147,7828,772026,no_split,narrow,individual,1,0.4488682746887207
1,1.0,0.4561269916838722,0.37735628866818105,0.40163105297217844,0.41931134168118067,0.4352535702697136,0.4519111414456283,0.4679514661025677,0.4865981861629369,0.5074021713806086,0.539919461797829,0.7621030515452194,0.9263888888888889,0.4350562744557189,0.0,0.959059405940594,50,1147,7828,772026,no_split,narrow,individual,1,0.4488682746887207
0,0.0,0.5356215217771685,0.40227301164442736,0.430221223129513,0.455313031632624,0.4785981699878963,0.5044723843957243,0.5332325675508139,0.5690864695226875,0.6213348363161522,0.7127332454847105,1.63408999619866,0.981904761904762,0.5584597330210957,0.0,0.9636692506459948,50,1147,7840,772026,no_split,narrow,individual,1,0.45448827743530273
1,1.0,0.5802598437539354,0.428185556874452,0.4668149011612353,0.5000676036318232,0.5301674512364941,0.560967066546563,0.5921973708293977,0.6272703565312837,0.6769969812002047,0.756086594530922,1.5177544819769773,0.9462626262626262,0.5584597330210957,0.0,0.9636692506459948,50,1147,7840,772026,no_split,narrow,individual,1,0.45448827743530273
0,0.0,0.47535202046230135,0.3952387536189368,0.415059050163693,0.43185318672793904,0.4472811077020912,0.4632719135599789,0.4800720646389602,0.500248772828565,0.5283048575870075,0.5706993014117442,0.9591679192844811,0.9985555555555555,0.4993445261673438,0.0,0.9906133333333333,50,1147,7924,772026,no_split,narrow,individual,1,0.45661354064941406
1,1.0,0.5214914545104599,0.42248569573645256,0.45235323119860915,0.47411747972285084,0.49387825488827874,0.5135451365218172,0.5342346859928825,0.5584782128827461,0.585673255493522,0.6287740517879883,0.9670664501760718,0.9832820512820513,0.4993445261673438,0.0,0.9906133333333333,50,1147,7924,772026,no_split,narrow,individual,1,0.45661354064941406
0,0.0,0.46149977103764006,0.3740049363108183,0.39701221893013455,0.41414975413068583,0.4311775164963137,0.4478329045679128,0.46641631985349263,0.48796972307992187,0.5180792243684825,0.5678821870153579,1.0269746058752218,0.9902105263157894,0.4762923060862018,0.0,0.9756455696202532,50,1147,7939,772026,no_split,narrow,individual,1,0.4500772953033447
1,1.0,0.4900024605214541,0.39211562522701426,0.4172772303018458,0.4391384658244792,0.4589291931003253,0.47925065534666195,0.5002022520092118,0.5245309167063289,0.5551826768938181,0.600229313289571,1.0454669262055398,0.9621463414634146,0.4762923060862018,0.0,0.9756455696202532,50,1147,7939,772026,no_split,narrow,individual,1,0.4500772953033447
0,0.0,0.4471703433437772,0.3622928103208986,0.3831710205121252,0.4003213879655439,0.4154619973808067,0.4310986838504341,0.4482906616151804,0.47072572492089004,0.4996462572286958,0.5509918285963207,1.1649771666676714,0.9712727272727273,0.4614002142581996,0.0,0.937909604519774,50,1147,8026,772026,no_split,narrow,individual,1,0.45469212532043457
1,1.0,0.47382311743745725,0.377196927858248,0.4015046123278648,0.4221652293270217,0.4416518560781976,0.4613056921722557,0.4808718472069561,0.5053635197361308,0.5370830566277255,0.5858235632672883,1.2017017685822455,0.9087830687830688,0.4614002142581996,0.0,0.937909604519774,50,1147,8026,772026,no_split,narrow,individual,1,0.45469212532043457
0,0.0,0.44133598887436787,0.34494492347145006,0.36766342862493984,0.3867571802954102,0.40461842712011953,0.4226919181454599,0.4420964178334999,0.4662774862172863,0.500272758454038,0.5623547272466642,1.2007695782937553,0.9322994652406417,0.4508080337663465,0.0,0.8953972602739726,50,1147,8311,772026,no_split,narrow,individual,1,0.4483046531677246
1,1.0,0.46075900227645883,0.35093533399110927,0.38016422474834116,0.40199792425417774,0.42270115089998056,0.44372393593153253,0.46586231538491685,0.49589901753783794,0.5322914022086499,0.5923316884222336,1.1997305623257035,0.856629213483146,0.4508080337663465,0.0,0.8953972602739726,50,1147,8311,772026,no_split,narrow,individual,1,0.4483046531677246
0,0.0,0.3878228974675242,0.32336691543309287,0.3418335635971675,0.35627043374362205,0.3691160682688353,0.3814312029425676,0.3949756018621877,0.40925747780913974,0.42869247544734007,0.4592886483138603,0.7507779190897845,0.9803108808290155,0.4065957423886301,0.0,0.9151219512195122,50,1147,8446,772026,no_split,narrow,individual,1,0.44117140769958496
1,1.0,0.4271818734668884,0.3410902305068082,0.3638975458151859,0.38234050928675384,0.4002242938920819,0.41736692278995446,0.43793670317652034,0.4587555077142253,0.4843855527601618,0.5258490324516395,0.929869294324886,0.8436363636363636,0.4065957423886301,0.0,0.9151219512195122,50,1147,8446,772026,no_split,narrow,individual,1,0.44117140769958496
0,0.0,0.4882148956514699,0.4048075068378071,0.42527820354093265,0.4426478592596332,0.4579424367306368,0.4740470054520103,0.49222978000319434,0.5128469352192843,0.5408381962915481,0.5884490157802846,1.0866594292742549,0.9742713567839196,0.4982745691756287,0.0,0.9571428571428572,50,1147,8521,772026,no_split,narrow,individual,1,0.44486331939697266
1,1.0,0.5090373381611535,0.4161103215006964,0.43979651284456694,0.45898954573541056,0.47793332124113974,0.49727397524930506,0.5169381115795774,0.5411406888195118,0.5712728671344153,0.6193591784342853,0.9913063188911246,0.9388172043010753,0.4982745691756287,0.0,0.9571428571428572,50,1147,8521,772026,no_split,narrow,individual,1,0.44486331939697266
0,0.0,0.5581815112464277,0.4353934504309643,0.4668262993226776,0.49193371006543807,0.5148327570616444,0.5379969497492189,0.5642119204936581,0.5949270955615672,0.6385289117731585,0.7100628188726851,1.3231670062561962,0.9845901639344262,0.565367116871169,0.0,0.9789111747851003,50,1147,8704,772026,no_split,narrow,individual,1,0.4481229782104492
1,1.0,0.5732885977707332,0.4450524482727998,0.4780404328666382,0.5041141966215311,0.5302400669644828,0.5560438221345682,0.5838452697631082,0.6161083058440976,0.6576347513048171,0.7229622672339389,1.3517411165806168,0.9726506024096385,0.565367116871169,0.0,0.9789111747851003,50,1147,8704,772026,no_split,narrow,individual,1,0.4481229782104492
0,0.0,0.45329397384791964,0.36297188091875876,0.3848706493461791,0.403128571676365,0.4195786787215175,0.43710832242772185,0.45586271913209037,0.4803983630567624,0.512052044363061,0.5624881708745109,1.0470437240276391,0.9868599033816425,0.46611104923504226,0.0,0.9741237113402061,50,1147,8755,772026,no_split,narrow,individual,1,0.44295215606689453
1,1.0,0.4807692514733538,0.3779816723694414,0.4048938010016052,0.4273581626700236,0.44848053840455454,0.46838555263393294,0.49110466268281,0.5161339758967594,0.5477482880478792,0.5983414515494624,0.9877634689456002,0.9595580110497237,0.46611104923504226,0.0,0.9741237113402061,50,1147,8755,772026,no_split,narrow,individual,1,0.44295215606689453
0,0.0,0.4629003151216042,0.36540343408747905,0.3890602565942159,0.407485853647464,0.42583992269744747,0.44514459618685676,0.46643621404939517,0.49370999365455154,0.5291513887028756,0.5858885002281233,1.2420661667913058,0.9798076923076923,0.4707610658295726,0.0,0.94935,50,1147,8785,772026,no_split,narrow,individual,1,0.441741943359375
1,1.0,0.4792768790965384,0.3865182682949943,0.4130825502907345,0.4333100183074559,0.451798849953173,0.4703077872789152,0.48877085347417576,0.510473598822974,0.5375316886302278,0.5806145221067298,1.074830470275869,0.9163541666666667,0.4707610658295726,0.0,0.94935,50,1147,8785,772026,no_split,narrow,individual,1,0.441741943359375
0,0.0,0.40302864463362803,0.3257438665773135,0.3432261590253909,0.3569537371180744,0.36964690893871716,0.38396441517106394,0.3994278381615969,0.41992143109186103,0.4485418505804797,0.5011540628310691,1.1311517960463113,0.968404255319149,0.42423958177655646,0.0,0.9039074550128535,50,1147,8788,772026,no_split,narrow,individual,1,0.4446077346801758
1,1.0,0.44407866726347456,0.33958843671011696,0.36391142233621404,0.38527089842671075,0.4069689346949389,0.42853696899943405,0.4528778844441285,0.4800243423617007,0.5148776249403192,0.5692484325371803,1.310406106724265,0.8435820895522388,0.42423958177655646,0.0,0.9039074550128535,50,1147,8788,772026,no_split,narrow,individual,1,0.4446077346801758
0,0.0,0.4307780660030214,0.3776244574146048,0.39155479670672566,0.4026227397820658,0.41274560044952885,0.4227675352032123,0.4332549901356454,0.44597914006751443,0.46197152466627267,0.4916957593805268,0.8106876886515706,0.9928888888888889,0.4487373232360342,0.0,0.9583060109289617,50,1147,161753,772026,no_split,narrow,individual,1,0.4592714309692383
1,1.0,0.46611724959056267,0.39507981600595654,0.41550762850779327,0.43089094208930423,0.445665442343768,0.45953710239627144,0.47536469585211466,0.49180930907843096,0.5123334855658638,0.5461485716176883,0.8695250824027317,0.9248387096774193,0.4487373232360342,0.0,0.9583060109289617,50,1147,161753,772026,no_split,narrow,individual,1,0.4592714309692383
0,0.0,0.449141587452831,0.3759643464669379,0.3935498944815165,0.40846108103898476,0.4226222816369013,0.43719418911509833,0.4527705804007811,0.4718057113231038,0.4957289319415082,0.5374103087352696,0.9449417483273764,0.9938144329896907,0.4680162171509051,0.0,0.9831382978723404,50,1147,337788,772026,no_split,narrow,individual,1,0.46002936363220215
1,1.0,0.4881353279279731,0.3916583683948501,0.4164120938380973,0.4376438042848155,0.45785455105385847,0.47840806855269025,0.4990214761700924,0.5222447628567475,0.5513286343254763,0.5966679157547242,0.9306347549167684,0.9717582417582418,0.4680162171509051,0.0,0.9831382978723404,50,1147,337788,772026,no_split,narrow,individual,1,0.46002936363220215
