,congruency,mean_rt,qu10_rt,qu20_rt,qu30_rt,qu40_rt,qu50_rt,qu60_rt,qu70_rt,qu80_rt,qu90_rt,qu100_rt,mean_acc,mean_rt_overall,nonconvergent_trials,accuracy_overall,n_posterior_draws,condition,id,slurm_id,split,spacing,estimation_level,number_parts,time_post_sampling_sec
0,0.0,0.42350219115307036,0.3379323497073045,0.3560030654873236,0.37197603621852626,0.38791105982999574,0.40456700179307015,0.4247358455211029,0.44893283255640654,0.48012772465454856,0.5318087246968142,1.2522838850066202,0.9743157894736842,0.4281167500465965,0.0,0.9594708994708995,50,1164,1108,772032,no_split,wide,individual,1,0.507530927658081
1,1.0,0.4327803999921815,0.34704994843471537,0.3681307615238749,0.3856499496755367,0.40114859594631475,0.417875163588723,0.43724727142687264,0.45898638134854636,0.4885930958638038,0.5352284534349707,1.1434938348609565,0.944468085106383,0.4281167500465965,0.0,0.9594708994708995,50,1164,1108,772032,no_split,wide,individual,1,0.507530927658081
0,0.0,0.44443419956821684,0.35832253210549775,0.3809939767763841,0.39888751080348367,0.41458352377290947,0.4320169479459641,0.45009253590020054,0.47153074635347947,0.49974796519839176,0.5441775761720995,1.0865886003096241,0.9637037037037037,0.4527743771122398,0.0,0.9566842105263158,50,1164,1507,772032,no_split,wide,individual,1,0.4924459457397461
1,1.0,0.461027222954231,0.3606123982149988,0.3844201143988954,0.40323716315600705,0.4213744780755863,0.441083566409017,0.46493036597543663,0.4920752001788712,0.5278131180263513,0.5884793912692342,1.190374523624665,0.949738219895288,0.4527743771122398,0.0,0.9566842105263158,50,1164,1507,772032,no_split,wide,individual,1,0.4924459457397461
0,0.0,0.4547736479915067,0.359013279831733,0.38315814655268915,0.4034627971370453,0.42284173696357885,0.4405504197045381,0.46016624425903957,0.4834489470056293,0.5158858676470667,0.5680203131237713,1.1716203205750682,0.9827368421052631,0.46438342839971364,0.0,0.9779002624671916,50,1164,1538,772032,no_split,wide,individual,1,0.49306344985961914
1,1.0,0.47394289582149,0.366464309634446,0.39463475402215265,0.4176250126779463,0.4389719510298051,0.46090342073691476,0.4835827658023301,0.5113132046357135,0.5461028389296761,0.5972709126824529,1.1792163481630595,0.973089005235602,0.46438342839971364,0.0,0.9779002624671916,50,1164,1538,772032,no_split,wide,individual,1,0.49306344985961914
0,0.0,0.4696174225398639,0.37536061832546047,0.39718865439611567,0.4160794050278017,0.43412360696724867,0.45266375516508206,0.474055099424918,0.49905168472381706,0.532976692048179,0.586274553126725,1.0633449068836944,0.9828260869565217,0.47377887624276716,0.0,0.9773513513513513,50,1164,1582,772032,no_split,wide,individual,1,0.5090057849884033
1,1.0,0.47789558313166064,0.38251745029473544,0.40685024245286605,0.42634551100362283,0.4446790509933819,0.4631689912735596,0.4838030528695123,0.5076879553956455,0.5416824284045082,0.590062488777197,1.0330336805232307,0.9719354838709677,0.47377887624276716,0.0,0.9773513513513513,50,1164,1582,772032,no_split,wide,individual,1,0.5090057849884033
0,0.0,0.43927265349747374,0.3561766880672115,0.37635905001229103,0.39263845778628625,0.40757126102687874,0.42306553975522737,0.4401515060929169,0.46126545349414483,0.48955679192225604,0.5438263909355987,1.0743449519032477,0.9726701570680628,0.4512168679643668,0.0,0.9510182767624021,50,1164,1583,772032,no_split,wide,individual,1,0.5034520626068115
1,1.0,0.46309887298091135,0.3695868327987557,0.39421958874134416,0.4133867180823395,0.4318958667496448,0.450339710345642,0.47035796819167675,0.4934899003064862,0.5230808258427775,0.5722645518057857,1.0680076585077478,0.9294791666666666,0.4512168679643668,0.0,0.9510182767624021,50,1164,1583,772032,no_split,wide,individual,1,0.5034520626068115
0,0.0,0.5670275570573023,0.4037040839089787,0.4396849616586577,0.4719130954599801,0.5022919022976933,0.5357548144331401,0.5703523721991377,0.6146655222182328,0.6722890940775836,0.7745725865572075,1.575367653392455,0.9661016949152542,0.5739448734649364,0.0,0.960989010989011,50,1164,1597,772032,no_split,wide,individual,1,0.49596142768859863
1,1.0,0.5804922799042476,0.412187407739825,0.4511474275253559,0.4838668681732191,0.5157788552551642,0.5507413495204363,0.5882103408137594,0.6327591096790064,0.692101768581835,0.7878339264576634,1.4932027571092608,0.9561497326203209,0.5739448734649364,0.0,0.960989010989011,50,1164,1597,772032,no_split,wide,individual,1,0.49596142768859863
0,0.0,0.40849084829482435,0.33577181746610724,0.3549371511762887,0.37056071547725145,0.38424597400143495,0.39824596823761066,0.4135426102590031,0.43219180269331453,0.4557875036735191,0.49255556835652753,0.9117117992380995,0.9890526315789474,0.42023673068703127,0.0,0.9839577836411609,50,1164,1601,772032,no_split,wide,individual,1,0.4979743957519531
1,1.0,0.4320447606051228,0.3417234512353564,0.36595187490416126,0.3845102429076106,0.4023035596230791,0.41954052792829033,0.43918660454173286,0.46187435372521,0.4925244862360709,0.5369235966318422,0.8966624710360231,0.9788359788359788,0.42023673068703127,0.0,0.9839577836411609,50,1164,1601,772032,no_split,wide,individual,1,0.4979743957519531
0,0.0,0.4811808563613923,0.34918819766506265,0.37736637568230896,0.4032293830554208,0.4284445145116948,0.4556462134003583,0.48495305692216356,0.5213994762722901,0.5687414924392824,0.6474252403450049,1.3350024224245964,0.9717894736842105,0.4907760222658871,0.0,0.9662631578947368,50,1164,1614,772032,no_split,wide,individual,1,0.4913914203643799
1,1.0,0.5003711881703818,0.3548501918668808,0.38882241786508914,0.41682976229117796,0.443578437348218,0.4729361395001602,0.5072390772884062,0.5465214390581079,0.5969073912325805,0.6789649296653607,1.3688862571867562,0.9607368421052631,0.4907760222658871,0.0,0.9662631578947368,50,1164,1614,772032,no_split,wide,individual,1,0.4913914203643799
0,0.0,0.43141674044464534,0.3746754950123921,0.3901477941942274,0.40255104003049236,0.41359299955929946,0.4250877879149719,0.4370556714792133,0.4502806094660915,0.4672664278751868,0.49427161499458155,0.7225235225562785,0.9914736842105263,0.4386293314587249,0.0,0.9886089238845145,50,1164,161753,772032,no_split,wide,individual,1,0.49681687355041504
1,1.0,0.44580416021618635,0.38094059309881406,0.3978858583719836,0.4118149718948632,0.4251156957645798,0.43781660089946717,0.45174526116156555,0.46788077753548957,0.48794271590801636,0.5217117335297948,0.852043633138927,0.9857591623036649,0.4386293314587249,0.0,0.9886089238845145,50,1164,161753,772032,no_split,wide,individual,1,0.49681687355041504
0,0.0,0.4712924147733982,0.37437803786639,0.3967102947648117,0.4168810059731253,0.4352017409382376,0.4538703617212328,0.4754127723097397,0.5015102717412704,0.535160189977505,0.5922556659793322,1.0017493425266475,0.9787234042553191,0.47601585824241505,0.0,0.9733509234828496,50,1164,1638,772032,no_split,wide,individual,1,0.49255967140197754
1,1.0,0.4806651114998766,0.3804230064123601,0.40511295324674623,0.42514242610491376,0.44538110915906365,0.4654011480095787,0.48704893304570274,0.5139134084192729,0.5469786821967226,0.5992794159520842,1.2770748764606739,0.9680628272251309,0.47601585824241505,0.0,0.9733509234828496,50,1164,1638,772032,no_split,wide,individual,1,0.49255967140197754
0,0.0,0.39628034298411874,0.3252939721293372,0.3439749692671657,0.3578264608727349,0.3711140474375068,0.3855114208529624,0.40099448212411276,0.4182998302675222,0.4418016394370729,0.4822302260603861,0.8847958575921337,0.9766315789473684,0.40536877671851773,0.0,0.9615303430079156,50,1164,1657,772032,no_split,wide,individual,1,0.49059581756591797
1,1.0,0.41450529740389236,0.33384037246742,0.3528829004864593,0.3690506182326391,0.38481903218889296,0.40234009494171075,0.4197112390152701,0.44045718892609154,0.4684967754863198,0.5137633851121259,0.945658038488958,0.9463492063492064,0.40536877671851773,0.0,0.9615303430079156,50,1164,1657,772032,no_split,wide,individual,1,0.49059581756591797
0,0.0,0.46636649511384853,0.37425848992388955,0.39528224487507624,0.41364072475633035,0.4307865462998897,0.44857153827673435,0.4696367432687363,0.4927207137332305,0.5266583945461404,0.5767212180310235,1.3356920728791604,0.9856382978723405,0.4767829249550998,0.0,0.9812698412698413,50,1164,1663,772032,no_split,wide,individual,1,0.4885365962982178
1,1.0,0.4870897081664432,0.3842845315125455,0.4093206649574924,0.42896211940888407,0.4505994645259937,0.4702458133527565,0.49296709743234507,0.5197069838457055,0.5557436637369421,0.6106222992910416,1.0672299153808695,0.9769473684210527,0.4767829249550998,0.0,0.9812698412698413,50,1164,1663,772032,no_split,wide,individual,1,0.4885365962982178
0,0.0,0.5087102826106356,0.39807818513768983,0.4263215899509765,0.4499043156544962,0.47066506619369697,0.49129350189435134,0.5144698828640231,0.5426167461738695,0.5793434343590543,0.6451264586964512,1.2212339513121793,0.9705376344086022,0.5184515145110881,0.0,0.9606434316353888,50,1164,1761,772032,no_split,wide,individual,1,0.4928731918334961
1,1.0,0.5281406542623401,0.40401340883529724,0.43466020415308104,0.46100556019862576,0.48560394292273346,0.5095151521868126,0.5369742752200414,0.570007213950732,0.6105595671940882,0.6764979794200132,1.294395142771896,0.9508021390374332,0.5184515145110881,0.0,0.9606434316353888,50,1164,1761,772032,no_split,wide,individual,1,0.4928731918334961
0,0.0,0.44712802871019136,0.34643547548380105,0.3726378653271822,0.39161214313935405,0.41036311315282864,0.4297238005616281,0.4510462613603758,0.47657632015120915,0.510767972241939,0.5690129944298922,1.1319488773403927,0.9383246073298429,0.4527696624458598,0.0,0.9303141361256545,50,1164,1768,772032,no_split,wide,individual,1,0.5016112327575684
1,1.0,0.45841129618152826,0.34876912682832634,0.37617433406083167,0.39741432540479193,0.4176350376786867,0.4390117529034694,0.46373081467653837,0.49111115296807567,0.5295053452285823,0.5916445998991156,1.237870552689146,0.922303664921466,0.4527696624458598,0.0,0.9303141361256545,50,1164,1768,772032,no_split,wide,individual,1,0.5016112327575684
0,0.0,0.38084054303343096,0.30568436516331604,0.32464572559301247,0.3401667230535232,0.3546360616239057,0.369187769077459,0.3850991484837418,0.4040877171324932,0.4297008961948228,0.46938059770424456,1.0782268222273628,0.9614893617021276,0.3842583901920169,0.0,0.949840425531915,50,1164,1813,772032,no_split,wide,individual,1,0.4954352378845215
1,1.0,0.3876762373506028,0.30564390003877223,0.32592267589204155,0.34257065050768043,0.3584647949680166,0.3746454388026388,0.3921904587762008,0.41375563037743357,0.4411794355268591,0.4869158956059678,1.0852950738518403,0.9381914893617022,0.3842583901920169,0.0,0.949840425531915,50,1164,1813,772032,no_split,wide,individual,1,0.4954352378845215
0,0.0,0.3910993066571159,0.3123680094002658,0.33206639410129923,0.34788006798619125,0.36206804178974045,0.3768166682180995,0.39349556376593425,0.4139348343128679,0.44268952682228024,0.48657394378951785,1.0017687398734725,0.9809473684210527,0.39818678087694787,0.0,0.9766404199475066,50,1164,1821,772032,no_split,wide,individual,1,0.5034432411193848
1,1.0,0.4052371479019116,0.31875018980945413,0.3397342920560048,0.35808159953566215,0.37465945809473744,0.3919442997664817,0.4107636827094122,0.43384044871181676,0.46330122165985804,0.5080190184348105,0.9817967898018687,0.9723560209424084,0.39818678087694787,0.0,0.9766404199475066,50,1164,1821,772032,no_split,wide,individual,1,0.5034432411193848
0,0.0,0.4430639387997783,0.35202503989143014,0.37503908927354856,0.39316757635067623,0.41044869084208846,0.4284504541112727,0.4479899304742586,0.47132160455471134,0.5018823160433648,0.5513707315008243,1.0041744483561714,0.9798952879581152,0.4486823473377736,0.0,0.9799468085106383,50,1164,275,772032,no_split,wide,individual,1,0.5086393356323242
1,1.0,0.45448297453105535,0.35606343589852474,0.3792055090275787,0.3983118720521998,0.4176867051480169,0.43759398065162414,0.458381014296534,0.48482978370878604,0.5207744691396563,0.5785109705228414,1.1138813303914583,0.98,0.4486823473377736,0.0,0.9799468085106383,50,1164,275,772032,no_split,wide,individual,1,0.5086393356323242
0,0.0,0.3822921388437687,0.3070121279477935,0.32450424850182386,0.33893518294178937,0.3534472484425562,0.36812163138595544,0.3840219837915896,0.40517018263832116,0.4311842337005879,0.47520029582832873,0.9974375039751976,0.977872340425532,0.3900724198277102,0.0,0.9702917771883289,50,1164,3286,772032,no_split,wide,individual,1,0.5052411556243896
1,1.0,0.3978115353038,0.3119392161283972,0.33120257787043583,0.34785244572708557,0.36371113726136206,0.3820296268958133,0.40147884378755594,0.424673021883967,0.4561598169965528,0.5030888837083255,0.9552230582904918,0.9627513227513228,0.3900724198277102,0.0,0.9702917771883289,50,1164,3286,772032,no_split,wide,individual,1,0.5052411556243896
0,0.0,0.4572213306385437,0.36331045341521007,0.3872782348428895,0.4067655411386863,0.42464967223236677,0.44196846331233197,0.46143058055943703,0.4849009598467927,0.5174545155150453,0.5674896052951248,1.0484960834280705,0.9794708994708995,0.4674820951769826,0.0,0.9751978891820581,50,1164,3292,772032,no_split,wide,individual,1,0.5029592514038086
1,1.0,0.4776888556915349,0.3718635028679082,0.3971578550925745,0.4194401667451048,0.4407001142550954,0.4624446180194044,0.4864378083888814,0.512316227490214,0.5468629403384373,0.6041830401135981,1.0670407946318068,0.9709473684210527,0.4674820951769826,0.0,0.9751978891820581,50,1164,3292,772032,no_split,wide,individual,1,0.5029592514038086
0,0.0,0.45250993743998924,0.37053190269262226,0.39243700070830995,0.4103252541474386,0.4264961055679442,0.4426635921628932,0.46076409829561266,0.4809746236297029,0.5070256072864352,0.5466267168589141,0.9130260627127771,0.988421052631579,0.4583427653488568,0.0,0.9860367454068242,50,1164,337788,772032,no_split,wide,individual,1,0.5047924518585205
1,1.0,0.4641450548917093,0.3735229689291168,0.3977468651761423,0.41648934975482244,0.4335108671013399,0.452165372448583,0.47201326486144846,0.4945896610418518,0.524247013122116,0.5700597271502914,0.9392071554417678,0.9836649214659686,0.4583427653488568,0.0,0.9860367454068242,50,1164,337788,772032,no_split,wide,individual,1,0.5047924518585205
0,0.0,0.40707688576775747,0.3275033207914927,0.34493202556100555,0.36074639632665684,0.37587975542497026,0.39166061955831216,0.40832321628094187,0.42987221694881145,0.45910270581045215,0.5076219833456178,1.0028598652429217,0.9789304812834224,0.4194901795946051,0.0,0.9694086021505376,50,1164,3487,772032,no_split,wide,individual,1,0.5011618137359619
1,1.0,0.43203767119255376,0.33298368138740414,0.3565732355524335,0.3748524792641801,0.3937857996743907,0.41492898062395456,0.43680925836787693,0.46431129167660956,0.498281296552846,0.5543501024967198,1.0147714268934407,0.9597837837837838,0.4194901795946051,0.0,0.9694086021505376,50,1164,3487,772032,no_split,wide,individual,1,0.5011618137359619
0,0.0,0.4115179876887184,0.34790993155350874,0.36663571251585886,0.38045991065632334,0.39322432004649865,0.4053344579985996,0.4182065902220139,0.43235464140868873,0.4508732143221591,0.48187190805876146,0.819567252137625,0.9821989528795811,0.4179351512849719,0.0,0.9767724867724867,50,1164,3580,772032,no_split,wide,individual,1,0.502568244934082
1,1.0,0.42448958041269597,0.35287306090299086,0.37220302879369355,0.38732251061765754,0.40080649425941267,0.41470758184227086,0.42974649113068947,0.44843506245485804,0.47126869539596666,0.5085330053574182,0.7994626189374642,0.9712299465240641,0.4179351512849719,0.0,0.9767724867724867,50,1164,3580,772032,no_split,wide,individual,1,0.502568244934082
0,0.0,0.46907281446500215,0.36655245844461043,0.39264150913119816,0.41239441291308465,0.4311400620138107,0.4506337604110816,0.47132354464736687,0.4970501836713152,0.5338518629847316,0.5947020126408413,1.4142461594784619,0.9532967032967034,0.47849411820161597,0.0,0.93353591160221,50,1164,3625,772032,no_split,wide,individual,1,0.49498844146728516
1,1.0,0.48802010309085897,0.37914740325635904,0.4062213452682262,0.42934258351211235,0.45178267526940513,0.4719580550582876,0.4963570495084747,0.5231682859535733,0.5588768193463552,0.6159065366164079,1.247659872842948,0.9135555555555556,0.47849411820161597,0.0,0.93353591160221,50,1164,3625,772032,no_split,wide,individual,1,0.49498844146728516
0,0.0,0.5451332016486825,0.43221685734822396,0.4621799189171698,0.4875487009142729,0.5104171068144924,0.5319265041406785,0.5553481779348209,0.5842435032633746,0.6179202516674185,0.6728948117529445,1.3907354362481386,0.9906806282722513,0.552627933208263,0.0,0.9890288713910761,50,1164,3754,772032,no_split,wide,individual,1,0.5047402381896973
1,1.0,0.5601621107234201,0.44028080256728486,0.4736593129696891,0.49908020076190596,0.523627805336396,0.5469736105400489,0.5718906947102701,0.6021344863355613,0.6370037984046868,0.6954977511600957,1.1894313394087495,0.9873684210526316,0.552627933208263,0.0,0.9890288713910761,50,1164,3754,772032,no_split,wide,individual,1,0.5047402381896973
0,0.0,0.41677178566425377,0.34050850489736256,0.3596396020643649,0.3746986778806715,0.3892591970627138,0.40499615534248123,0.4213712997690305,0.44164982955063614,0.46629760549106686,0.5069903383721949,0.9826303043049586,0.966984126984127,0.4222747200590308,0.0,0.9635356200527705,50,1164,3910,772032,no_split,wide,individual,1,0.4988222122192383
1,1.0,0.4277486916412036,0.34232487029670733,0.3624236201773291,0.3798091389295505,0.3957571703754619,0.41223400829961143,0.43164999041106566,0.45495275116521194,0.48559192198027934,0.5318274286736638,1.0223406979554124,0.9601052631578947,0.4222747200590308,0.0,0.9635356200527705,50,1164,3910,772032,no_split,wide,individual,1,0.4988222122192383
0,0.0,0.40876691057757764,0.33967836995308237,0.35507862655235056,0.3690552346815793,0.382356466542375,0.3961078339521812,0.4107576625485219,0.4294483464880882,0.4544076417678616,0.49205726266697236,0.8751443737737188,0.9783157894736842,0.41170260442498646,0.0,0.9697625329815304,50,1164,4222,772032,no_split,wide,individual,1,0.5005624294281006
1,1.0,0.4146538310440748,0.34432218327503045,0.36150110200000746,0.3762912220457028,0.38968198651300906,0.40386840204288055,0.41950853038229197,0.43805651746474333,0.461170505998025,0.4964749254391718,0.8901439491624655,0.9611640211640211,0.41170260442498646,0.0,0.9697625329815304,50,1164,4222,772032,no_split,wide,individual,1,0.5005624294281006
0,0.0,0.45346958203175564,0.34368925110328685,0.3689735479122972,0.38918867821461295,0.40931454408428286,0.43089530047836055,0.45434322048712045,0.4826051146817744,0.5253650126045363,0.5996042283462635,1.3951909256164248,0.9464550264550264,0.462103085295884,0.0,0.9186772486772486,50,1164,4264,772032,no_split,wide,individual,1,0.4976921081542969
1,1.0,0.4707365885600123,0.35915616340369927,0.38621549754716467,0.4089858268027342,0.43002722098662,0.4520878210258952,0.4768870553276239,0.5054569454732295,0.5438311824749985,0.6059580682140213,1.226667891261663,0.8908994708994709,0.462103085295884,0.0,0.9186772486772486,50,1164,4264,772032,no_split,wide,individual,1,0.4976921081542969
0,0.0,0.43418061105609973,0.36888964872077606,0.38489929269978435,0.39796612978977997,0.4102405792907392,0.42267715191448496,0.43690142069185955,0.45417302933051296,0.476733295395697,0.5149656798588502,0.8168586041935747,0.9852127659574468,0.43942643475126725,0.0,0.9773866666666666,50,1164,5281,772032,no_split,wide,individual,1,0.5009539127349854
1,1.0,0.444700310979564,0.3745828360931132,0.3933520709821029,0.4076052791572698,0.42131628910856206,0.4353233401772306,0.4492746417749499,0.46737366332876296,0.49047111915228614,0.5275008411313268,0.8181201927367487,0.9695187165775401,0.43942643475126725,0.0,0.9773866666666666,50,1164,5281,772032,no_split,wide,individual,1,0.5009539127349854
