,congruency,mean_rt,qu10_rt,qu20_rt,qu30_rt,qu40_rt,qu50_rt,qu60_rt,qu70_rt,qu80_rt,qu90_rt,qu100_rt,mean_acc,mean_rt_overall,nonconvergent_trials,accuracy_overall,n_posterior_draws,condition,id,slurm_id,split,spacing,estimation_level,number_parts,time_post_sampling_sec
0,0.0,0.42018657010172283,0.3313062406526904,0.3493624302442281,0.3663698142760059,0.38228874633110727,0.4003617664209491,0.4203606632634221,0.4459886804141612,0.47803678682602235,0.5357633469290354,1.206382829428304,0.989578947368421,0.4271765283306284,0.0,0.984973544973545,50,1145,1108,772020,no_split,wide,individual,1,0.7301533222198486
1,1.0,0.43424084781728833,0.3387864843785682,0.36018632086559815,0.37908496651957846,0.39813436029831667,0.41775367971293675,0.43883360015967443,0.4640259064654287,0.4968457358534109,0.5478942786283566,1.0045530973740118,0.9803191489361702,0.4271765283306284,0.0,0.984973544973545,50,1145,1108,772020,no_split,wide,individual,1,0.7301533222198486
0,0.0,0.4434806829675545,0.3336594255410739,0.35629569310670445,0.37773005518903696,0.39910795871245586,0.4212420614005988,0.4445673383683073,0.47488609014616096,0.5155652211542355,0.580885736203814,1.193690102632166,0.9895238095238095,0.4520244067213836,0.0,0.9847894736842105,50,1145,1507,772020,no_split,wide,individual,1,0.7151699066162109
1,1.0,0.4604786673992563,0.34105529063665374,0.37110194460575036,0.39595444336523195,0.4188777018727784,0.4426567091470964,0.468245994620813,0.4989460391234596,0.5389113523279204,0.5992637269612704,1.1083805978508927,0.9801047120418848,0.4520244067213836,0.0,0.9847894736842105,50,1145,1507,772020,no_split,wide,individual,1,0.7151699066162109
0,0.0,0.45708294573181174,0.3542328956385193,0.37644864045845566,0.3957773266714373,0.41639753504692506,0.4370694935991974,0.46025066679725146,0.48876859131252115,0.52504724710329,0.5840854567852191,1.1282773235353498,0.9911578947368421,0.46584383369976307,0.0,0.9873490813648294,50,1145,1538,772020,no_split,wide,individual,1,0.7032136917114258
1,1.0,0.474558853144322,0.3620598446481471,0.38977955917497986,0.4129481881096409,0.43549006136420726,0.457414358186176,0.48096953009309407,0.5106690050154532,0.5478893840153883,0.6072008908110026,1.261195736779036,0.9835602094240837,0.46584383369976307,0.0,0.9873490813648294,50,1145,1538,772020,no_split,wide,individual,1,0.7032136917114258
0,0.0,0.4675678965236732,0.3671410512206078,0.3895020582267748,0.40900843691155325,0.4278606752964829,0.44859703714991145,0.4710302780521835,0.4982028335062437,0.5346861443686731,0.5943134543076133,1.0685161376963332,0.9921739130434782,0.47219371262238063,0.0,0.9894594594594595,50,1145,1582,772020,no_split,wide,individual,1,0.7058320045471191
1,1.0,0.47676978876303744,0.37184958419946956,0.3968602303432692,0.41848650838582496,0.43935391749395075,0.46049264572080406,0.48464957453293595,0.5123539174939508,0.5464663096830966,0.6001321128275103,1.069648997770733,0.9867741935483871,0.47219371262238063,0.0,0.9894594594594595,50,1145,1582,772020,no_split,wide,individual,1,0.7058320045471191
0,0.0,0.435625817358179,0.3337152963354045,0.35640393963151595,0.3768351031413292,0.3963333469652602,0.416550033918929,0.44041558192377805,0.46670447442853447,0.5022911394732841,0.5606502375308344,1.0504012717793676,0.993717277486911,0.4463777692945316,0.0,0.9903394255874673,50,1145,1583,772020,no_split,wide,individual,1,0.7104008197784424
1,1.0,0.4570737214812156,0.34240539345493365,0.36956822852452587,0.393556571747304,0.4155677819543797,0.43935465621313463,0.465749057492396,0.4957207024023805,0.5330298722357927,0.591730706611246,1.1224632148518703,0.9869791666666666,0.4463777692945316,0.0,0.9903394255874673,50,1145,1583,772020,no_split,wide,individual,1,0.7104008197784424
0,0.0,0.5638067252054665,0.3661158557593862,0.4141970354409915,0.45321184368296996,0.4919256161619752,0.5329744517771406,0.5749991670574977,0.6280535923513137,0.6981464874013223,0.7970106143197246,1.4807180948752041,0.9902824858757062,0.562761064623111,0.0,0.9869230769230769,50,1145,1597,772020,no_split,wide,individual,1,0.706963062286377
1,1.0,0.5617713217189564,0.3691821043492385,0.41262065597481873,0.45218352405933543,0.4904784885225422,0.5309928769573755,0.5722232850421075,0.6259385950590923,0.6911933659926041,0.7960196396288302,1.47194378812476,0.9837433155080214,0.562761064623111,0.0,0.9869230769230769,50,1145,1597,772020,no_split,wide,individual,1,0.706963062286377
0,0.0,0.4062393584502815,0.3201580995627412,0.3407619521190443,0.359261210576944,0.37666676637668606,0.39349424953642026,0.41253985129798787,0.4342414186048129,0.4630527096132576,0.5089422730572003,0.8476218452664679,0.9978947368421053,0.41399002141375885,0.0,0.9960949868073878,50,1145,1601,772020,no_split,wide,individual,1,0.7108583450317383
1,1.0,0.4217816931759847,0.3281433480928438,0.3534874430548225,0.37429293514175255,0.3943944672049642,0.4123058309943828,0.43193076685065457,0.45454281577335565,0.48289926021766055,0.5274728081450575,0.8724942495364203,0.9942857142857143,0.41399002141375885,0.0,0.9960949868073878,50,1145,1601,772020,no_split,wide,individual,1,0.7108583450317383
0,0.0,0.4915881647972093,0.34379717041236335,0.3737310911416159,0.39950651625094746,0.4279649421175094,0.4584616486523022,0.4941831212756889,0.535977859585436,0.5888761124398103,0.6774090964478249,1.490166415878884,0.9782105263157894,0.4960073226919461,0.0,0.973,50,1145,1614,772020,no_split,wide,individual,1,0.7031459808349609
1,1.0,0.5004264805866829,0.34900509846272776,0.383553394700468,0.4135429557377609,0.4415963568649252,0.47172182638513843,0.5056526623682908,0.5476924437246828,0.601165040275009,0.6857239933017095,1.424260515691249,0.9677894736842105,0.4960073226919461,0.0,0.973,50,1145,1614,772020,no_split,wide,individual,1,0.7031459808349609
0,0.0,0.4279864652523789,0.36379049848119005,0.3799214248986081,0.3939214248986081,0.40704822932317447,0.42050562194001856,0.4346091939378611,0.45001539324360296,0.47057178951911965,0.5018061041868778,0.8395087081033198,0.9990526315789474,0.4340227708194461,0.0,0.9982152230971129,50,1145,161753,772020,no_split,wide,individual,1,0.7100098133087158
1,1.0,0.440027472692445,0.3708791530578563,0.3893718709006967,0.4048399466897214,0.41938831377595787,0.43350562194001857,0.44909046023051286,0.4660837455787465,0.48568380489497515,0.5162457310926543,0.8192207899150153,0.9973821989528796,0.4340227708194461,0.0,0.9982152230971129,50,1145,161753,772020,no_split,wide,individual,1,0.7100098133087158
0,0.0,0.46873843557271716,0.35695306941717897,0.38152541308294063,0.40452394802203445,0.426523270757133,0.4504264148976439,0.4751430489607048,0.5055203888617311,0.5434900467185001,0.6040590185273738,1.087143804718672,0.992872340425532,0.47322835753981984,0.0,0.9921899736147757,50,1145,1638,772020,no_split,wide,individual,1,0.7055232524871826
1,1.0,0.47764775717236063,0.3632982791736363,0.3918813184465063,0.41551706624712453,0.43906848649199043,0.4616002870649928,0.48649640452859466,0.5162112996009711,0.5518152093952688,0.6107265492250148,1.2483185631854479,0.9915183246073298,0.47322835753981984,0.0,0.9921899736147757,50,1145,1638,772020,no_split,wide,individual,1,0.7055232524871826
0,0.0,0.39745246420585595,0.3180881467631299,0.33438580720897537,0.3494821949235251,0.3642906169368395,0.38048219492352514,0.3991849758436697,0.4210218378409642,0.45201925971937,0.49901492826832294,1.032245114551412,0.9905263157894737,0.40567928409198284,0.0,0.9863852242744063,50,1145,1657,772020,no_split,wide,individual,1,0.709205150604248
1,1.0,0.41394963212565544,0.3246244177745709,0.3450141034761816,0.3635257198709458,0.3811502371458007,0.39972938316866785,0.42080383145352246,0.4444314421836799,0.4744931332877505,0.5216180146874588,1.0350223513975942,0.9822222222222222,0.40567928409198284,0.0,0.9863852242744063,50,1145,1657,772020,no_split,wide,individual,1,0.709205150604248
0,0.0,0.46480909018638233,0.3687831280317517,0.38897016206971374,0.40719972800569876,0.4249922281885076,0.4445952734405624,0.4663133320328425,0.4941618839171495,0.5296619656396498,0.586616612724287,1.2492760063406454,0.9924468085106383,0.47580021424357016,0.0,0.9855555555555555,50,1145,1663,772020,no_split,wide,individual,1,0.6967258453369141
1,1.0,0.4866756422580508,0.3806166895552655,0.40716530455831645,0.42916910150425275,0.45057702833505936,0.47227436288595365,0.4955099690472961,0.5215534863229188,0.5547844483382424,0.6072792553576635,1.1750057734199602,0.9787368421052631,0.47580021424357016,0.0,0.9855555555555555,50,1145,1663,772020,no_split,wide,individual,1,0.6967258453369141
0,0.0,0.5102950812812689,0.36759816914477295,0.40131938522210514,0.43033745002428647,0.4568924418260953,0.48493921158247233,0.5181141221149993,0.5563584902860523,0.6059367047657636,0.685219588851351,1.2344495410865255,0.9933333333333333,0.516127472529215,0.0,0.9919571045576407,50,1145,1761,772020,no_split,wide,individual,1,0.7044892311096191
1,1.0,0.5219286745191506,0.3784276656474689,0.41481047916051983,0.4449507170495815,0.47327680846921555,0.501473443819367,0.5319635381689829,0.5691140600244672,0.6159005303734596,0.6909188757249092,1.3323313833077108,0.9905882352941177,0.516127472529215,0.0,0.9919571045576407,50,1145,1761,772020,no_split,wide,individual,1,0.7044892311096191
0,0.0,0.4442095566881562,0.31822369086627916,0.3440201057012708,0.3664955464924319,0.3912058468658181,0.416152655461987,0.44515181790703173,0.4796755737711905,0.5283086065729138,0.6069166417274302,1.3836637558370195,0.9868062827225131,0.4551252111384179,0.0,0.9796335078534032,50,1145,1768,772020,no_split,wide,individual,1,0.7088098526000977
1,1.0,0.4660408655886798,0.32882435395442494,0.36069327830239856,0.3900522008570169,0.4163224362075148,0.44435252578742224,0.4751777236252788,0.5090501722591548,0.5548454002220572,0.6279085055050053,1.251481156747826,0.9724607329842931,0.4551252111384179,0.0,0.9796335078534032,50,1145,1768,772020,no_split,wide,individual,1,0.7088098526000977
0,0.0,0.37732232727973813,0.29040414502885264,0.3076054099394852,0.32421346454718625,0.34123325824728534,0.3590790154869991,0.37907613843679344,0.4029178701193574,0.43480392778432664,0.4868233736651514,0.9326167248382408,0.9792553191489362,0.3826757847265466,0.0,0.9763829787234043,50,1145,1813,772020,no_split,wide,individual,1,0.7001199722290039
1,1.0,0.38802924217335516,0.2956054715727107,0.31565179582696057,0.3327314055533372,0.35106319286571586,0.3691829823225976,0.38987225763405925,0.41523086641462764,0.4486167248382407,0.5046286947136152,1.0461235365399428,0.9735106382978723,0.3826757847265466,0.0,0.9763829787234043,50,1145,1813,772020,no_split,wide,individual,1,0.7001199722290039
0,0.0,0.39497942491805066,0.3062921342282775,0.32665343806244246,0.3442909981889803,0.36143016704396147,0.37887293594255145,0.3987417187257372,0.4219148382524739,0.4548111298167111,0.5046888781687957,1.0757825834072605,0.9914736842105263,0.39753376281002467,0.0,0.9906561679790026,50,1145,1821,772020,no_split,wide,individual,1,0.7076997756958008
1,1.0,0.4000747272051821,0.31044836798831055,0.3316389855457114,0.3497417187257372,0.36731991375226386,0.3856480183686683,0.4062112552799546,0.42907666156660995,0.46035667688148074,0.5090596222031344,0.9838095200506262,0.9898429319371728,0.39753376281002467,0.0,0.9906561679790026,50,1145,1821,772020,no_split,wide,individual,1,0.7076997756958008
0,0.0,0.4453513360609731,0.3380420697523603,0.3640972699664643,0.38662618397974063,0.4083038088150137,0.43031006352393886,0.4542104293709382,0.481505070541841,0.517294679131166,0.5716622290736532,1.0675215925383474,0.9961256544502618,0.44678882575686263,0.0,0.9943085106382978,50,1145,275,772020,no_split,wide,individual,1,0.7081208229064941
1,1.0,0.44827293674018637,0.3415476285042798,0.3676710088831948,0.39057676688811527,0.4120704615562555,0.4335983315618774,0.45701387428371576,0.4845047744773129,0.519831248239131,0.5747115268481433,1.1334692317603854,0.9924324324324324,0.44678882575686263,0.0,0.9943085106382978,50,1145,275,772020,no_split,wide,individual,1,0.7081208229064941
0,0.0,0.37603705935188747,0.29565817286595314,0.3123521243507599,0.32698568430401487,0.34287769787814876,0.3587405501360368,0.377583416766843,0.3996371408589941,0.429357814569005,0.47942505522671675,0.8305124409144171,0.9925531914893617,0.38680461705830427,0.0,0.9873209549071618,50,1145,3286,772020,no_split,wide,individual,1,0.7128870487213135
1,1.0,0.39751520355992526,0.30431474378228485,0.3276299940922248,0.34729197754743907,0.3653557357519745,0.38440433875063423,0.40443318474712625,0.42840915962320886,0.4593645681989791,0.5053205201941415,1.103826503106542,0.9821164021164022,0.38680461705830427,0.0,0.9873209549071618,50,1145,3286,772020,no_split,wide,individual,1,0.7128870487213135
0,0.0,0.44465034507951484,0.3376621007797417,0.3600741187468533,0.38084287180473486,0.401503155194493,0.42203600794907714,0.4474483291082692,0.4766162334431953,0.5175138644472588,0.579296492761036,1.1637749229469105,0.9938624338624339,0.4602341021120845,0.0,0.9881794195250659,50,1145,3292,772020,no_split,wide,individual,1,0.708808183670044
1,1.0,0.4757358393707986,0.3517838019589347,0.38292066496931587,0.40978761215571696,0.4355075134303118,0.4599035926777445,0.4869718496510673,0.5174080787285245,0.5566542069469941,0.6162621195787994,1.2343916180802024,0.9825263157894737,0.4602341021120845,0.0,0.9881794195250659,50,1145,3292,772020,no_split,wide,individual,1,0.708808183670044
0,0.0,0.44821473647153626,0.35893075307247696,0.38052711275475615,0.39952274561873724,0.41658857131750493,0.43459921701516807,0.45503046004113246,0.4789274165242604,0.5088811446469873,0.5537294652381676,0.8971181368471605,0.9969473684210526,0.4531997515288646,0.0,0.9959580052493439,50,1145,337788,772020,no_split,wide,individual,1,0.7194211483001709
1,1.0,0.458158667030919,0.36421794364578214,0.3901171189859723,0.40987893793829266,0.4289648632600421,0.44676037699940474,0.466354138963752,0.4893427158240332,0.5197603769994048,0.5634648925093072,1.096813597817425,0.9949738219895288,0.4531997515288646,0.0,0.9959580052493439,50,1145,337788,772020,no_split,wide,individual,1,0.7194211483001709
0,0.0,0.406705056798568,0.31024973636919806,0.3292134736502827,0.3471191824288699,0.3652513593816043,0.3848631298462684,0.4062370225653249,0.43348236937565177,0.46788015687094814,0.5326898709183748,1.0458631298462684,0.992192513368984,0.42070952778931037,0.0,0.982741935483871,50,1145,3487,772020,no_split,wide,individual,1,0.7005207538604736
1,1.0,0.43486539846643907,0.3245073611357172,0.35106649896944314,0.374971993047612,0.39663001824327576,0.41856053257830156,0.4425597731299859,0.47190627556594866,0.5071094480078232,0.561557494785039,1.1150531008686788,0.9731891891891892,0.42070952778931037,0.0,0.982741935483871,50,1145,3487,772020,no_split,wide,individual,1,0.7005207538604736
0,0.0,0.3965512885066101,0.3177035640837447,0.33806971723386253,0.3546363779129737,0.37013459904194457,0.3857773741504357,0.40329217145452295,0.4237547045101721,0.4497866770376459,0.4889998587854615,0.7985556246855965,0.9984293193717277,0.40328180403335595,0.0,0.9978835978835979,50,1145,3580,772020,no_split,wide,individual,1,0.7154262065887451
1,1.0,0.4101562878066633,0.32762369934967595,0.3490568927410501,0.3671859585016208,0.38468004374650044,0.401474639181687,0.4200229486989104,0.4405622429404323,0.465954840099471,0.503680756880157,0.8396727014084718,0.9973262032085561,0.40328180403335595,0.0,0.9978835978835979,50,1145,3580,772020,no_split,wide,individual,1,0.7154262065887451
0,0.0,0.47297076632545215,0.33794683135076836,0.3646134018203751,0.38924211949105925,0.4142926394782064,0.4412677068839619,0.4729815485867469,0.5103786088917482,0.5656298894516814,0.6513478652136351,1.2629669356018745,0.9903296703296703,0.48959238189220583,0.0,0.9813259668508287,50,1145,3625,772020,no_split,wide,individual,1,0.7019259929656982
1,1.0,0.5063986820763678,0.3554397494329263,0.39182466064598287,0.4233390867166504,0.45339654147804154,0.48552317241407744,0.5187134809689595,0.5566745202237652,0.6039251901507513,0.6820320608922076,1.3205231724140774,0.9722222222222222,0.48959238189220583,0.0,0.9813259668508287,50,1145,3625,772020,no_split,wide,individual,1,0.7019259929656982
0,0.0,0.5492768019956624,0.4212406765255412,0.45265949364139807,0.4800085951426575,0.505176163907492,0.5306944461987373,0.5596830758419767,0.5923122115007057,0.63366493991439,0.6993114116162655,1.274765394648211,0.9961256544502618,0.5537912173534284,0.0,0.9961679790026247,50,1145,3754,772020,no_split,wide,individual,1,0.705812931060791
1,1.0,0.558329392792025,0.43180705140945946,0.46417802809650377,0.4923486497212877,0.5170420463189782,0.5426892267173837,0.5702231006067014,0.6023668778207594,0.6419091721850291,0.704823531933465,1.2550262562536671,0.9962105263157894,0.5537912173534284,0.0,0.9961679790026247,50,1145,3754,772020,no_split,wide,individual,1,0.705812931060791
0,0.0,0.416229940403604,0.32934820196920533,0.34828992294829025,0.36510867527749374,0.38051555667180015,0.3983919223099243,0.4184973099497127,0.4418442726651451,0.474984079016067,0.5252036101237421,0.9725155566718001,0.9870899470899471,0.4218170496160959,0.0,0.9839050131926121,50,1145,3910,772020,no_split,wide,individual,1,0.6970925331115723
1,1.0,0.42737475299062716,0.33483481634469464,0.35608069831682226,0.3742437047706767,0.3924092395988197,0.4118258850744188,0.43301515415572767,0.45783565099658247,0.48870114584299607,0.5390148866052047,0.935814598669417,0.9807368421052631,0.4218170496160959,0.0,0.9839050131926121,50,1145,3910,772020,no_split,wide,individual,1,0.6970925331115723
0,0.0,0.40652620788527255,0.3288529911338438,0.3463125618747181,0.36217955516161765,0.3772977001515441,0.3927872417457783,0.40963743054199,0.4312537073399219,0.4583339540035478,0.5011415346804262,0.8435681104045141,0.9921052631578947,0.40992668559670153,0.0,0.9905013192612138,50,1145,4222,772020,no_split,wide,individual,1,0.7021658420562744
1,1.0,0.41334515525369364,0.33406996074244133,0.3526227623552952,0.3692260797715681,0.38435636134377005,0.4007836698906303,0.4181388599946273,0.4391926733239532,0.46649931317965626,0.5086194340836563,0.8860255243910724,0.9888888888888889,0.40992668559670153,0.0,0.9905013192612138,50,1145,4222,772020,no_split,wide,individual,1,0.7021658420562744
0,0.0,0.4631971237589104,0.32913819298880853,0.3531473147087128,0.3757976020575836,0.3991610804089998,0.4251525067772419,0.4571386157192726,0.4964179951575715,0.5514198987060822,0.6476965168655077,1.464153108615677,0.9694179894179894,0.4762005629123497,0.0,0.9554497354497354,50,1145,4264,772020,no_split,wide,individual,1,0.6933526992797852
1,1.0,0.4892040020657888,0.33814802852687353,0.37108693484588207,0.3980496336474937,0.42708140591191796,0.4587933250225966,0.49316373582970097,0.5365117893957607,0.5889471198118321,0.676487259408721,1.4780256376051333,0.9414814814814815,0.4762005629123497,0.0,0.9554497354497354,50,1145,4264,772020,no_split,wide,individual,1,0.6933526992797852
0,0.0,0.43566665343759636,0.3681574301860947,0.3827398797537719,0.39605057650560216,0.40862951132892067,0.42263093078283476,0.4381111447196155,0.45663093078283473,0.48129913679881814,0.5202991367988181,1.0634700528426875,0.9909574468085106,0.43957043925319916,0.0,0.9878933333333333,50,1145,5281,772020,no_split,wide,individual,1,0.7037351131439209
1,1.0,0.44349510092877853,0.3731574301860947,0.3889814523604923,0.4042991367988181,0.4179996200656305,0.4325424613182654,0.44862321477866274,0.46712476674515074,0.48993073041700824,0.5287130977911455,0.8436309307828348,0.984812834224599,0.43957043925319916,0.0,0.9878933333333333,50,1145,5281,772020,no_split,wide,individual,1,0.7037351131439209
0,0.0,0.4561207398630582,0.3552878056099245,0.3797632132790809,0.4018344423573101,0.42209034198131806,0.4425558094207296,0.4650238687864943,0.48962112191461227,0.5231107828300314,0.574686481543597,0.9471680253789141,0.9973544973544973,0.46242301965141797,0.0,0.9968,50,1145,5332,772020,no_split,wide,individual,1,0.711083173751831
1,1.0,0.46882694911378353,0.36593147118726843,0.39259371594538567,0.4156015281664474,0.43602936257379954,0.458358266867825,0.4802030368443724,0.5056923415411646,0.5381225455059288,0.5849829681826759,0.9621978893827857,0.9962365591397849,0.46242301965141797,0.0,0.9968,50,1145,5332,772020,no_split,wide,individual,1,0.711083173751831
0,0.0,0.4429298800292361,0.3367195629810656,0.3598620163589049,0.3816016121774419,0.4010595087171962,0.4233840937498681,0.4488361293673159,0.47575158108224297,0.5128582716013839,0.5745247422404552,1.2148857698207174,0.9925263157894737,0.4523967901806039,0.0,0.9913984168865435,50,1145,5575,772020,no_split,wide,individual,1,0.7070519924163818
1,1.0,0.4619137898036722,0.3461746383440306,0.37470588927900605,0.39873364810661244,0.42287856614440916,0.4469208717070562,0.47177662752746147,0.5010310082490158,0.5374635646249186,0.5963369200215815,1.1951746383440307,0.9902645502645503,0.4523967901806039,0.0,0.9913984168865435,50,1145,5575,772020,no_split,wide,individual,1,0.7070519924163818
0,0.0,0.4438308553624132,0.3395074233496583,0.3607815131479591,0.3805663459635124,0.4006001885499256,0.42275257765102164,0.44608446997201767,0.47582127830002996,0.5121959852105258,0.5752465108157211,1.1781907016632227,0.9838251366120219,0.4488473000621612,0.0,0.9802695417789757,50,1145,5731,772020,no_split,wide,individual,1,0.7096233367919922
1,1.0,0.4537303286794693,0.34412826604158475,0.36973037172869666,0.39145298851303323,0.41250193495889914,0.4339233004578822,0.4580844699720177,0.48796608129150176,0.5260392750347982,0.5865776820796205,1.2739225837409573,0.9768085106382979,0.4488473000621612,0.0,0.9802695417789757,50,1145,5731,772020,no_split,wide,individual,1,0.7096233367919922
0,0.0,0.426188202510467,0.33442877027513546,0.3567278179097866,0.37498359971021517,0.3926717045941434,0.41124976168826044,0.43199440271525047,0.4556039240220859,0.4863959320288006,0.5353669548221657,0.9935216852603168,0.9968085106382979,0.4366328675592847,0.0,0.9948541114058356,50,1145,5761,772020,no_split,wide,individual,1,0.7144355773925781
1,1.0,0.4470222698300662,0.3485833125227244,0.37442512158109825,0.394553628597888,0.41480305206294626,0.43529676594985867,0.4569817820021786,0.48272953781624534,0.5126409200574067,0.5585182792437824,1.0018547234282085,0.992910052910053,0.4366328675592847,0.0,0.9948541114058356,50,1145,5761,772020,no_split,wide,individual,1,0.7144355773925781
0,0.0,0.43004727079297195,0.31072624976479774,0.3323022305108079,0.35340750621719613,0.3755376916001013,0.39972834080341824,0.42884009037348986,0.46419174739276925,0.5102966044005345,0.585477786646499,1.3674715431215223,0.94875,0.432223208292972,0.0,0.9417708333333333,50,1145,5803,772020,no_split,wide,individual,1,0.711693286895752
1,1.0,0.434399145792972,0.3134174548146506,0.3354542385389894,0.35760690185920846,0.3806645827768436,0.4059129671908274,0.4338017026038913,0.4698608488762075,0.5146997816109022,0.5930266732883654,1.3200456695425706,0.9347916666666667,0.432223208292972,0.0,0.9417708333333333,50,1145,5803,772020,no_split,wide,individual,1,0.711693286895752
0,0.0,0.4957626020172481,0.35695597656025535,0.38766890508479845,0.4155482481246361,0.4421780903742347,0.471031334183901,0.5020822943432064,0.5386584346976774,0.5862658552393001,0.667867310677783,1.2676580112189162,0.9911458333333333,0.5041376538278938,0.0,0.9897905759162303,50,1145,5815,772020,no_split,wide,individual,1,0.7543859481811523
1,1.0,0.5126008640786516,0.3649484612228992,0.4015574146048889,0.4332683841388643,0.46181645008270444,0.4911331492334081,0.5231497417444808,0.5627949889617226,0.6116957120419545,0.6884840827628668,1.3471152728880977,0.988421052631579,0.5041376538278938,0.0,0.9897905759162303,50,1145,5815,772020,no_split,wide,individual,1,0.7543859481811523
0,0.0,0.41203860873504405,0.34034910114877936,0.3572408578540987,0.372407821838193,0.3859993773238276,0.40109858521954733,0.41776188751085913,0.4361496256764626,0.4595031093590378,0.4964638023083764,0.8704975629950242,0.9977894736842106,0.42204847952312535,0.0,0.9960846560846561,50,1145,6055,772020,no_split,wide,individual,1,0.7408998012542725
1,1.0,0.43216483829831387,0.3485158684877731,0.3716931684895954,0.3899164953265602,0.407422751614351,0.4237754104207405,0.4411512934694689,0.46151757344323197,0.4865352817371881,0.5242575096018729,0.8563491011487794,0.9943617021276596,0.42204847952312535,0.0,0.9960846560846561,50,1145,6055,772020,no_split,wide,individual,1,0.7408998012542725
0,0.0,0.4638054403794639,0.33725964459027097,0.3615174417467975,0.3854667157438793,0.4074124030289834,0.4333503853548871,0.4633773339216376,0.4987221329463264,0.5491914044536255,0.6302288445048588,1.3353860486739138,0.9801081081081081,0.4691939246921948,0.0,0.9750670241286863,50,1145,6109,772020,no_split,wide,individual,1,0.7157707214355469
1,1.0,0.47449642255312685,0.3453662874113152,0.37205972720061425,0.3973439495292851,0.42346185200954384,0.45016129949591566,0.47841284567436876,0.5124250733316517,0.5583698792464425,0.6343213525816479,1.3119312275862922,0.9701063829787234,0.4691939246921948,0.0,0.9750670241286863,50,1145,6109,772020,no_split,wide,individual,1,0.7157707214355469
0,0.0,0.38696286818611103,0.3190878575509849,0.33399528050077654,0.3478171131592053,0.36026615677707724,0.3731742151981553,0.38847682258205163,0.4063215137616328,0.43036540532738576,0.4711660972047057,1.0319869606942702,0.9944502617801048,0.40059537594382433,0.0,0.9910182767624021,50,1145,6214,772020,no_split,wide,individual,1,0.7277402877807617
1,1.0,0.4141568810569662,0.32817485946116937,0.35014372837290847,0.368082551698059,0.3854877172235701,0.40288649941766214,0.4211678270258434,0.4431245952659574,0.47105106942723846,0.5155023082891189,0.9421409007588933,0.9876041666666666,0.40059537594382433,0.0,0.9910182767624021,50,1145,6214,772020,no_split,wide,individual,1,0.7277402877807617
0,0.0,0.46039140469401024,0.32537067542711684,0.3537877112739015,0.37967916106793353,0.4076206191898048,0.4349833953512781,0.4658593333717198,0.5042606864297374,0.551491987220618,0.6275563376455956,1.2573708594468613,0.9897354497354497,0.46592807136067693,0.0,0.9865608465608465,50,1145,6253,772020,no_split,wide,individual,1,0.7283012866973877
1,1.0,0.47146473802734357,0.3340676485269391,0.3669859168541971,0.39277639996853997,0.4201315864588914,0.44829167925574087,0.47929291494609344,0.5158382595639311,0.5620184164521965,0.6394760913697877,1.2315861552393725,0.9833862433862434,0.46592807136067693,0.0,0.9865608465608465,50,1145,6253,772020,no_split,wide,individual,1,0.7283012866973877
0,0.0,0.4567313554819335,0.3613522129605159,0.38436045510756345,0.40352542179961115,0.42279762261106396,0.4413747468928823,0.4619674239675351,0.4872510325972291,0.5193489095691118,0.5708126633256988,0.9661726116539969,0.9946315789473684,0.46087711207814847,0.0,0.9932283464566929,50,1145,6262,772020,no_split,wide,individual,1,0.7268803119659424
1,1.0,0.46500116314244594,0.3656192903570102,0.3903793812335014,0.41136209023144127,0.43138053981865626,0.452402694091923,0.47376602634890047,0.498211180213209,0.5313408369987441,0.5807830485052212,1.0097782682726792,0.9918324607329843,0.46087711207814847,0.0,0.9932283464566929,50,1145,6262,772020,no_split,wide,individual,1,0.7268803119659424
0,0.0,0.4800124998168194,0.3704985887248472,0.3985277333271907,0.42249955933651173,0.44375588003832644,0.46644021479029646,0.4905187667279918,0.5191675286302297,0.5541427269189377,0.6055012411259708,1.013498588724847,0.9990526315789474,0.4942970261326089,0.0,0.9974736842105263,50,1145,6361,772020,no_split,wide,individual,1,0.7328395843505859
1,1.0,0.5085815524483983,0.394157360791188,0.42575588003832643,0.45192469083492326,0.47626340519922944,0.49944666187420783,0.5229996419120474,0.5490068902864302,0.5841770662253039,0.634291155812532,1.011164363797769,0.9958947368421053,0.4942970261326089,0.0,0.9974736842105263,50,1145,6361,772020,no_split,wide,individual,1,0.7328395843505859
0,0.0,0.41578768007503536,0.34312224692918936,0.35934847983842727,0.37348545713683734,0.3879976923210087,0.4031885574822418,0.4200175725519085,0.43801829148448534,0.46385786181346733,0.5046153851459036,0.8437127712322573,0.9905263157894737,0.42058568090825293,0.0,0.9896042216358839,50,1145,6427,772020,no_split,wide,individual,1,0.723261833190918
1,1.0,0.42540906798926537,0.3474343311418295,0.36600292751456925,0.381746771309826,0.3980634867602863,0.41329244095211226,0.4297127712322573,0.4496086777611002,0.47598629017074856,0.5189353387858304,0.978989839530668,0.9886772486772487,0.42058568090825293,0.0,0.9896042216358839,50,1145,6427,772020,no_split,wide,individual,1,0.723261833190918
0,0.0,0.4573169099887867,0.36679417787428575,0.38631436456009993,0.40362064861000785,0.42109945376515334,0.43964028368935487,0.46131077695782674,0.48638235220045795,0.5173140070858099,0.569778317175114,1.094197006043258,0.9879787234042553,0.4608107979320492,0.0,0.98624,50,1145,6583,772020,no_split,wide,individual,1,0.7206501960754395
1,1.0,0.4643233697680563,0.3711944912979274,0.3917696033439693,0.41078488835408355,0.4293144539286725,0.44763196556449103,0.4686176497803886,0.4945022212882606,0.5283838381277944,0.5775357825885322,1.379705098130476,0.9844919786096257,0.4608107979320492,0.0,0.98624,50,1145,6583,772020,no_split,wide,individual,1,0.7206501960754395
0,0.0,0.44612226267266203,0.342520117199626,0.36510746602890115,0.383861655529494,0.4038965782268557,0.42472688071972403,0.44885350482793174,0.47852379982320065,0.5154095806307691,0.5775252053797046,1.0695525767305862,0.9899470899470899,0.4549749005358881,0.0,0.9849732620320856,50,1145,6634,772020,no_split,wide,individual,1,0.724301815032959
1,1.0,0.46401894678534616,0.35031496201433077,0.37677993737064736,0.3993370062022828,0.422332461309961,0.4445704963181343,0.4708956688721165,0.5005596916170272,0.5385270322933612,0.6015642665936131,1.098491628432063,0.9798918918918919,0.4549749005358881,0.0,0.9849732620320856,50,1145,6634,772020,no_split,wide,individual,1,0.724301815032959
0,0.0,0.454075941808151,0.3635604495919246,0.383244531784224,0.40077965361014006,0.41823807791384965,0.4364523567847897,0.4582760275611301,0.48268745282954534,0.5150244938445018,0.5646034646382723,0.9742572089322887,0.9960416666666667,0.4641332707354791,0.0,0.991644908616188,50,1145,6844,772020,no_split,wide,individual,1,0.7230966091156006
1,1.0,0.47424325583520166,0.3741757217898068,0.3985942309202219,0.4202515894437902,0.4400971304742076,0.4604160623536738,0.48224100530645375,0.5072374788286834,0.5396003033015193,0.5898550407132507,1.204448524387653,0.9872251308900524,0.4641332707354791,0.0,0.991644908616188,50,1145,6844,772020,no_split,wide,individual,1,0.7230966091156006
0,0.0,0.43027068550200537,0.31602790724340846,0.3397088196521906,0.36185227409086734,0.3832565511562317,0.40701174400989026,0.4338542051577638,0.463945526740156,0.5080379541517686,0.5759242627751215,1.345610006140765,0.996421052631579,0.4565091071057529,0.0,0.9912565445026178,50,1145,7624,772020,no_split,wide,individual,1,0.7352769374847412
1,1.0,0.4824742118177949,0.34394683829985245,0.38025670809603734,0.4106992762075673,0.43785473402131564,0.4667836416915364,0.49725608033681484,0.5319229220197,0.5740329387063385,0.6417504073473685,1.2157860622075534,0.9861458333333334,0.4565091071057529,0.0,0.9912565445026178,50,1145,7624,772020,no_split,wide,individual,1,0.7352769374847412
0,0.0,0.41353478953954,0.31592354232025727,0.3373826301692272,0.3570607173939337,0.37666647222517474,0.39589375245624225,0.41634759312017056,0.44261476411843964,0.47807421088962615,0.5343716977645425,1.1633716977645427,0.9911458333333333,0.4197280792428559,0.0,0.9882722513089005,50,1145,7756,772020,no_split,wide,individual,1,0.7283651828765869
1,1.0,0.42598656146936453,0.32296290694471014,0.3472741864464462,0.36913822254754297,0.3889616003345059,0.4096219734591215,0.43265372717484846,0.4597118091063935,0.49393622832500683,0.5482898762845436,1.1057423469684673,0.9853684210526316,0.4197280792428559,0.0,0.9882722513089005,50,1145,7756,772020,no_split,wide,individual,1,0.7283651828765869
0,0.0,0.4286581544170168,0.316600160585244,0.33969827525558277,0.36122620059187777,0.3827078878718379,0.40491009899158514,0.4294639632144577,0.46098428783744355,0.5025741488931375,0.5703889628442962,1.214910098991585,0.9898936170212767,0.4378603356958943,0.0,0.9844504021447721,50,1145,7768,772020,no_split,wide,individual,1,0.7201170921325684
1,1.0,0.4472117415360508,0.32322919864364563,0.3531720020433745,0.3785741512028328,0.4031308321625839,0.42920666905436233,0.45639008551880056,0.48769951563342234,0.5269108203496712,0.5884618263575957,1.2361822535217943,0.9789189189189189,0.4378603356958943,0.0,0.9844504021447721,50,1145,7768,772020,no_split,wide,individual,1,0.7201170921325684
0,0.0,0.41345224821911575,0.2979377240806357,0.3200803229857424,0.3409042568898532,0.3618526825474944,0.3850648285814467,0.41092231861961304,0.44434234647761833,0.489993623914501,0.5666809070425097,1.2301075346109571,0.9797905759162304,0.42114915921388013,0.0,0.9721989528795811,50,1145,7807,772020,no_split,wide,individual,1,0.719012975692749
1,1.0,0.4288460702086445,0.30457660393915165,0.33254037346078974,0.3577249881187231,0.38111516600620565,0.406117033489141,0.4335382690052285,0.4679106295843704,0.5090095013497884,0.578582819059988,1.3931505366138635,0.964607329842932,0.42114915921388013,0.0,0.9721989528795811,50,1145,7807,772020,no_split,wide,individual,1,0.719012975692749
0,0.0,0.4016786956916644,0.32074048627893287,0.33687524704219024,0.3517873088608596,0.3670997908355081,0.38345433067062473,0.40188994920905136,0.42465067561176134,0.45557177236487073,0.5058190702944728,0.9840668755186561,0.9808333333333333,0.4079718592415332,0.0,0.9753280839895013,50,1145,7813,772020,no_split,wide,individual,1,0.7174842357635498
1,1.0,0.4143649142763205,0.3241576679582777,0.3441414808706484,0.36274155465888663,0.3797414020331789,0.3978286027650051,0.41874048627893284,0.44246728422437825,0.4742680811174035,0.522939045924604,1.076820445213844,0.9697354497354498,0.4079718592415332,0.0,0.9753280839895013,50,1145,7813,772020,no_split,wide,individual,1,0.7174842357635498
0,0.0,0.40381698390955917,0.32757048192557203,0.34605759203248254,0.3619811294684094,0.3776912733389181,0.39338246025548484,0.4096341737038337,0.42945256038425034,0.4554901555328996,0.494013959329821,0.8676975278220377,0.998848167539267,0.41060379019228166,0.0,0.9967015706806283,50,1145,7828,772020,no_split,wide,individual,1,0.7305326461791992
1,1.0,0.4173905964750042,0.33591705506570685,0.35800279135037727,0.3756975278220378,0.39213868940473395,0.40785941776521717,0.426347945359358,0.44568189161423855,0.4714798488237993,0.5092653823025779,0.7906975278220377,0.9945549738219895,0.41060379019228166,0.0,0.9967015706806283,50,1145,7828,772020,no_split,wide,individual,1,0.7305326461791992
0,0.0,0.5619919009871265,0.403639848849065,0.43211580759626406,0.4618148344403651,0.49072285606073474,0.5232310981846193,0.5611652124779443,0.6084290714478796,0.6742056330610294,0.7747499364902358,1.5474179780743327,0.9691005291005291,0.5684878978350382,0.0,0.9636170212765958,50,1145,7840,772020,no_split,wide,individual,1,0.7172291278839111
1,1.0,0.5750533705850666,0.4080106159054273,0.4432889217089874,0.4763913338631171,0.5084002440043882,0.5419708037063484,0.5791100528012229,0.6253155993171231,0.6840320383139493,0.7830278886699055,1.5106814584982475,0.9580748663101605,0.5684878978350382,0.0,0.9636170212765958,50,1145,7840,772020,no_split,wide,individual,1,0.7172291278839111
0,0.0,0.4526384351099925,0.35997471405731096,0.38267040227069776,0.40340326046676145,0.4221836121360936,0.44125700502379156,0.46190278186427325,0.4851879475669607,0.5146755976258092,0.5601514195507664,0.9487066543947335,0.9991623036649214,0.45936634086915484,0.0,0.9987434554973822,50,1145,7924,772020,no_split,wide,individual,1,0.7279882431030273
1,1.0,0.46609424662831717,0.3714948137569956,0.39752399994170473,0.41889869390117285,0.4381251345497198,0.45749869342943716,0.4778946059380725,0.5001132032956731,0.5284806436997653,0.5719830397176701,0.8571836121360936,0.998324607329843,0.45936634086915484,0.0,0.9987434554973822,50,1145,7924,772020,no_split,wide,individual,1,0.7279882431030273
0,0.0,0.43243119347520614,0.3393083848148119,0.36162222257410365,0.38154495679116335,0.40030745958585306,0.4191747968482727,0.4395449567911634,0.46462189607774285,0.4954679110631655,0.5445728896413099,0.9483039331988473,0.9988359788359789,0.44474818475978367,0.0,0.9970291777188329,50,1145,7939,772020,no_split,wide,individual,1,0.7334017753601074
1,1.0,0.4571306919554493,0.3568383602225044,0.38432408090052916,0.4067230144525784,0.42740238325827884,0.44730981051052354,0.46864643642676923,0.4927238551710873,0.5228880204432436,0.5694842900939793,0.9816218960777428,0.9952127659574468,0.44474818475978367,0.0,0.9970291777188329,50,1145,7939,772020,no_split,wide,individual,1,0.7334017753601074
0,0.0,0.4526939097501844,0.32758961738272163,0.3509240103003995,0.37392564887439117,0.3971864348147921,0.42186842728110935,0.4496898037483611,0.48582820306947455,0.5350320525852528,0.6176662956268844,1.2757372049773452,0.9806741573033708,0.46617837751258884,0.0,0.9705785123966942,50,1145,8026,772020,no_split,wide,individual,1,0.7176988124847412
1,1.0,0.47915262217046983,0.33799546166225997,0.3698651331111464,0.39791745600443273,0.4255329012720083,0.45399252501360876,0.48567810966667185,0.524358184927303,0.570852448342251,0.6496932888512064,1.394771746480283,0.9608648648648649,0.46617837751258884,0.0,0.9705785123966942,50,1145,8026,772020,no_split,wide,individual,1,0.7176988124847412
0,0.0,0.47242082503470123,0.3658341372750438,0.388533073987973,0.4078095976708177,0.4281724989320503,0.45002377762329826,0.47375877760998913,0.5024339858670431,0.5412137016786629,0.6051909500226136,1.4532364164847718,0.9832631578947368,0.4774689302978591,0.0,0.9795789473684211,50,1145,808,772020,no_split,wide,individual,1,0.7077627182006836
1,1.0,0.482517035561017,0.37249252138627875,0.39652581084241834,0.41817584874740893,0.43949160799032405,0.461996476172442,0.48647609830686556,0.5161310797498365,0.557110415832299,0.6156939350610655,1.3481104158322992,0.9758947368421053,0.4774689302978591,0.0,0.9795789473684211,50,1145,808,772020,no_split,wide,individual,1,0.7077627182006836
0,0.0,0.4550475580293952,0.31365887867840203,0.34185126552503886,0.3683254188321168,0.39412744504788405,0.42377227079937413,0.4560066589080556,0.4959332298578278,0.5488125953291015,0.633836671213411,1.3665760944146164,0.9722513089005236,0.4590658410799879,0.0,0.9674151436031332,50,1145,8311,772020,no_split,wide,individual,1,0.7154538631439209
1,1.0,0.46306319557302517,0.3222412550439984,0.3518244275110353,0.37748454325320535,0.40682189240156985,0.43491432346733105,0.46696235002863623,0.5051236296411235,0.5553476771906545,0.6390432799760671,1.3685708588332375,0.9626041666666667,0.4590658410799879,0.0,0.9674151436031332,50,1145,8311,772020,no_split,wide,individual,1,0.7154538631439209
0,0.0,0.45619075094184675,0.35950643917919745,0.37926763900909805,0.3960667210948556,0.41358084805322803,0.432580848053228,0.45522878878709605,0.48294055237528066,0.5208620889370477,0.5826900718485263,1.317259603663821,0.9847916666666666,0.46562176946036526,0.0,0.9776190476190476,50,1145,833,772020,no_split,wide,individual,1,0.7050225734710693
1,1.0,0.47535701438270694,0.3673894863764054,0.3925835919664142,0.41457374772286476,0.43564782172084826,0.4576894486806589,0.48143621135895787,0.5088465196712576,0.5464126168561311,0.6045598900512865,1.3688333200768268,0.9702150537634409,0.46562176946036526,0.0,0.9776190476190476,50,1145,833,772020,no_split,wide,individual,1,0.7050225734710693
0,0.0,0.577924935875539,0.35966519510333167,0.4002005911280182,0.4385588077704488,0.47876015628425966,0.5232472949125168,0.5736375354665629,0.6403755689725735,0.7296879888740304,0.8734446448435552,1.4865171344489572,0.9578260869565217,0.5851982801763614,0.0,0.952,50,1145,837,772020,no_split,wide,individual,1,0.7107856273651123
1,1.0,0.5923934164739494,0.3682366928623766,0.4128883034280201,0.456214552564615,0.4993106812252024,0.5463946908333025,0.5976046662864092,0.661314440841072,0.7431284720426733,0.8867355813472656,1.489947145635665,0.946236559139785,0.5851982801763614,0.0,0.952,50,1145,837,772020,no_split,wide,individual,1,0.7107856273651123
0,0.0,0.38979932367977277,0.31154825710419676,0.32966806844850594,0.3450109584818124,0.3599857089760382,0.3754054094086406,0.39301135365769096,0.4141868769564184,0.4410102998553481,0.484462731916425,0.9302164715762377,0.9951832460732984,0.39859152456155833,0.0,0.9917894736842106,50,1145,8446,772020,no_split,wide,individual,1,0.7032008171081543
1,1.0,0.40747676460611415,0.32071896656499704,0.3433170787808414,0.36201095848181236,0.37864669917664895,0.3957083540473091,0.41445410382228143,0.43674468837209923,0.4645724166914239,0.5072797005539581,1.0316963620181987,0.9883597883597883,0.39859152456155833,0.0,0.9917894736842106,50,1145,8446,772020,no_split,wide,individual,1,0.7032008171081543
0,0.0,0.42409504411164445,0.330483137207879,0.34966298762482306,0.3676816031678578,0.3843513616930723,0.40357760376160445,0.4253713064139395,0.4518991991897055,0.4853751924901914,0.5440632273673621,1.0184011562642181,0.9861375661375661,0.43185308193670363,0.0,0.981063829787234,50,1145,845,772020,no_split,wide,individual,1,0.7149739265441895
1,1.0,0.43969409342834087,0.33737639493551075,0.36101833426916274,0.3821644259241204,0.40244049768438334,0.42289131586931217,0.4445981407056981,0.4722309668289166,0.5079964481859898,0.5647064336826263,1.1549100557063137,0.9759358288770054,0.43185308193670363,0.0,0.981063829787234,50,1145,845,772020,no_split,wide,individual,1,0.7149739265441895
0,0.0,0.4743939817707516,0.3572097234577387,0.38064827094566284,0.40238433234515447,0.425176978429537,0.4481761836971047,0.4744196333396952,0.5080673344134228,0.5543715422464006,0.6218141260038693,1.5064968679789594,0.9913089005235602,0.487609944570421,0.0,0.9842631578947368,50,1145,8521,772020,no_split,wide,individual,1,0.7023849487304688
1,1.0,0.5009657588282879,0.3708598151643429,0.40336814358018586,0.4297934149371877,0.45373830085594047,0.480408334736393,0.5091275862861159,0.5430695272140122,0.5868897659112144,0.6546456307031593,1.3690240523171624,0.9771428571428571,0.487609944570421,0.0,0.9842631578947368,50,1145,8521,772020,no_split,wide,individual,1,0.7023849487304688
0,0.0,0.5422419656095515,0.39502629065354794,0.4260308367786858,0.4546774975351075,0.48259863033632483,0.5145084586719073,0.5473076627338714,0.5875971268107559,0.6405487099676576,0.7236879882553453,1.4485940189600124,0.9922826086956522,0.553261288891459,0.0,0.9882795698924731,50,1145,8704,772020,no_split,wide,individual,1,0.7057023048400879
1,1.0,0.5640461584865172,0.4117146078092204,0.4482250866030354,0.4796163464611967,0.5118117709434812,0.542782404737486,0.575534961096833,0.614986241410709,0.6635321717641722,0.7418743170939129,1.437343891516035,0.9843617021276596,0.553261288891459,0.0,0.9882795698924731,50,1145,8704,772020,no_split,wide,individual,1,0.7057023048400879
0,0.0,0.45188170342091494,0.3297927848530796,0.361026490356638,0.3887075003239788,0.4141636334401214,0.43801201375999027,0.46502938732024585,0.4959992731683075,0.5366639729539601,0.5904707097356121,1.0127973893727054,0.9993478260869565,0.458275218906323,0.0,0.9987945205479452,50,1145,8755,772020,no_split,wide,individual,1,0.7073681354522705
1,1.0,0.46477470426165485,0.3444298235501761,0.3778057824363518,0.4039956604790909,0.4283597907595131,0.4533234768372012,0.47942735989317947,0.5097750571593523,0.5450404372748597,0.5987686765269659,0.9960961532626381,0.998232044198895,0.458275218906323,0.0,0.9987945205479452,50,1145,8755,772020,no_split,wide,individual,1,0.7073681354522705
0,0.0,0.4553415302643698,0.34954587649358665,0.37222985643852957,0.3917473765853378,0.41112876864589454,0.4331520132038828,0.4574206811303494,0.4901182326747131,0.5285646740100678,0.5894093845125903,1.0415329912967177,0.9844791666666667,0.4584880406810364,0.0,0.9819791666666666,50,1145,8785,772020,no_split,wide,individual,1,0.6871469020843506
1,1.0,0.46163455109770307,0.353436475641267,0.378527702111115,0.3991491452362684,0.41953147147965103,0.4411887443153136,0.46541025474667297,0.493799347698389,0.5331570650520775,0.5943060721875706,1.1575329912967176,0.9794791666666667,0.4584880406810364,0.0,0.9819791666666666,50,1145,8785,772020,no_split,wide,individual,1,0.6871469020843506
0,0.0,0.4176390261824909,0.31057876679350416,0.3335768833538238,0.3534540294796552,0.37371971991757963,0.3956578047614064,0.42002629816030873,0.44949391187636273,0.48888865831206585,0.555988057608227,1.2008884805789257,0.9913227513227513,0.4288154086505975,0.0,0.9879045092838197,50,1145,8788,772020,no_split,wide,individual,1,0.6971747875213623
1,1.0,0.4400512399616195,0.3186054619387696,0.34863466689367806,0.3734540294796552,0.3982698076517053,0.423040904560372,0.449998717033946,0.47981158740145136,0.5189389857439239,0.5790284669871122,1.4156082187949457,0.984468085106383,0.4288154086505975,0.0,0.9879045092838197,50,1145,8788,772020,no_split,wide,individual,1,0.6971747875213623
0,0.0,0.4787571230609061,0.357847569983094,0.3799578552318229,0.400314234718032,0.42395734838372656,0.4481207127923405,0.4761521545307779,0.5113745098674123,0.5593274257560811,0.6403623831152022,1.4445202488456852,0.9662433862433862,0.4868234080997444,0.0,0.9565425531914894,50,1145,916,772020,no_split,wide,individual,1,0.6871147155761719
1,1.0,0.4949759635668054,0.36230567862217755,0.3917222938836729,0.41721038570356034,0.44150453050649296,0.46805405879510376,0.4993089393130984,0.5363412351660378,0.5826940764827945,0.6592662481784844,1.4204969352085892,0.9467379679144385,0.4868234080997444,0.0,0.9565425531914894,50,1145,916,772020,no_split,wide,individual,1,0.6871147155761719
0,0.0,0.41490963977464523,0.32081762077502735,0.33883897870370766,0.35648680012056727,0.37290461515541234,0.39200190771087173,0.41410868192001965,0.4405056706133237,0.47546247267159153,0.5408716080587971,1.2976859226504598,0.9827368421052631,0.4220255165532058,0.0,0.9759055118110236,50,1145,985,772020,no_split,wide,individual,1,0.6816768646240234
1,1.0,0.4291041374324022,0.3269315697903029,0.3488116564692947,0.3699702282580299,0.390012959655459,0.4103019964442875,0.4332370433328391,0.4607592530670221,0.4965554155629768,0.553362987145619,1.041448576384911,0.9691099476439791,0.4220255165532058,0.0,0.9759055118110236,50,1145,985,772020,no_split,wide,individual,1,0.6816768646240234
0,0.0,0.4426184699938134,0.3418139799712686,0.3629744720844371,0.38248186060827377,0.4023219226354437,0.4222032763626249,0.4431228813251154,0.4705073794836713,0.5093628979261653,0.570991493741429,1.1323975501395591,0.9937560975609756,0.4604637664762255,0.0,0.986532663316583,50,1145,275,772020,no_split,narrow,individual,1,0.6863617897033691
1,1.0,0.47941861507153355,0.35613357623898606,0.3863611913918408,0.41212273029852503,0.4369298296869197,0.4632348443972166,0.489477754880846,0.520700228572158,0.5633637582730352,0.6234534295274049,1.1178211359175836,0.978860103626943,0.4604637664762255,0.0,0.986532663316583,50,1145,275,772020,no_split,narrow,individual,1,0.6863617897033691
0,0.0,0.46905261884552946,0.36950517139995703,0.38894414184497367,0.4079888828775487,0.42680705866092516,0.44709333786565886,0.46962095819077326,0.4973470176179991,0.5354680888461764,0.5954503404134778,1.3583454180047394,0.987904761904762,0.47849174150065216,0.0,0.9830808080808081,50,1145,808,772020,no_split,narrow,individual,1,0.6853718757629395
1,1.0,0.4891488154661132,0.3815076436612907,0.4064626855418989,0.4274061661414711,0.44823097731013556,0.471374717992578,0.4949855883357157,0.523365130815122,0.5603081284417837,0.6188241208032785,1.235005597013933,0.9776344086021506,0.47849174150065216,0.0,0.9830808080808081,50,1145,808,772020,no_split,narrow,individual,1,0.6853718757629395
0,0.0,0.4502331490004037,0.3319228208492684,0.359562852478021,0.3824094651715639,0.4047979076720085,0.42864076729829104,0.4561008063997843,0.4879396291272593,0.5290982398861563,0.5930828795892484,1.290677854340523,0.9963,0.462675202333737,0.0,0.9940266666666666,50,1145,833,772020,no_split,narrow,individual,1,0.6961548328399658
1,1.0,0.4768946918575465,0.3446021066423781,0.38005891105084444,0.40957105996761256,0.43395186779483325,0.4602979308271864,0.48970096568118177,0.5225900920471583,0.5640632704415108,0.627061301155534,1.1755628524780208,0.9914285714285714,0.462675202333737,0.0,0.9940266666666666,50,1145,833,772020,no_split,narrow,individual,1,0.6961548328399658
0,0.0,0.6029696718474332,0.35257059904718,0.397401037912325,0.4419293457890165,0.48778152281202397,0.5395159579864457,0.6030640814650929,0.6817973169641084,0.7837545864668636,0.9516803284015286,1.4852647471930354,0.949109947643979,0.6142079555168104,0.0,0.9389893617021277,50,1145,837,772020,no_split,narrow,individual,1,0.6960899829864502
1,1.0,0.6258107240619514,0.36725794201817236,0.4212550486335293,0.4704577959251259,0.5190914947947651,0.5746528725199453,0.6355246804826822,0.7074140218847472,0.8038941468319296,0.9646550171048194,1.482500392799756,0.9285405405405406,0.6142079555168104,0.0,0.9389893617021277,50,1145,837,772020,no_split,narrow,individual,1,0.6960899829864502
0,0.0,0.4247133548887186,0.32892724699934806,0.3477316751376285,0.3643090519335334,0.3821414253215111,0.40112644476901255,0.4224046040512049,0.4490644745383491,0.4860627069786002,0.5533564262577554,1.1637056353365485,0.9888541666666667,0.43810537193417315,0.0,0.9788770053475936,50,1145,845,772020,no_split,narrow,individual,1,0.6916868686676025
1,1.0,0.45223321409201533,0.34099189345999537,0.3665311877073397,0.3890281358430096,0.4117316751376285,0.4346754645993504,0.45964356700331777,0.4879727266667795,0.5262215564988462,0.5856333879499503,1.3181514123565103,0.9683516483516483,0.43810537193417315,0.0,0.9788770053475936,50,1145,845,772020,no_split,narrow,individual,1,0.6916868686676025
0,0.0,0.4664451251312134,0.3482994528082644,0.37095922823197436,0.3919203225801296,0.41378908861207464,0.43796021492923487,0.46483944505157093,0.49920477329094914,0.5435468519301959,0.6175580327375119,1.3214921831715958,0.9849162011173185,0.4865576833630417,0.0,0.971639344262295,50,1145,916,772020,no_split,narrow,individual,1,0.6842477321624756
1,1.0,0.5058098112961822,0.3631145983194443,0.3963996227279559,0.4279567192082203,0.4551721409835557,0.483994250173714,0.5170845100101984,0.5522758148356542,0.5987395499371599,0.67270700040073,1.3563671418016825,0.9589304812834225,0.4865576833630417,0.0,0.971639344262295,50,1145,916,772020,no_split,narrow,individual,1,0.6842477321624756
0,0.0,0.4051357079151022,0.31438846670784326,0.3314819427783973,0.34768947669052463,0.36360539503076117,0.3817218101762603,0.401254496643658,0.4265130543266449,0.4625941321674899,0.525521748986039,1.2361676349393789,0.9882485875706215,0.42811524766982173,0.0,0.9724119241192412,50,1145,985,772020,no_split,narrow,individual,1,0.6986145973205566
1,1.0,0.4492995108812039,0.3321391580200168,0.36036500200808397,0.3848195467144707,0.4093966466370268,0.4327515772470953,0.4575923226593279,0.48781030097273065,0.5275941321674898,0.5860906460080171,1.2853884667078432,0.9578125,0.42811524766982173,0.0,0.9724119241192412,50,1145,985,772020,no_split,narrow,individual,1,0.6986145973205566
0,0.0,0.4115955624362769,0.3160803147587821,0.3351940127128969,0.35117555663073946,0.3680902816907733,0.38695017780201896,0.40877262440757,0.43480243504466787,0.47310844542482505,0.5347179820950334,1.2572058074587282,0.9920454545454546,0.4424424081300568,0.0,0.9753684210526316,50,1145,1108,772020,no_split,narrow,individual,1,0.6945111751556396
1,1.0,0.4690553730423375,0.33946907621414313,0.3734144320361807,0.40081338336559436,0.4267181658196107,0.45312891555330775,0.48169935829719174,0.5137600793539847,0.5533949013872045,0.6143306315233609,1.1838359566008814,0.9609803921568627,0.4424424081300568,0.0,0.9753684210526316,50,1145,1108,772020,no_split,narrow,individual,1,0.6945111751556396
0,0.0,0.4478251098392948,0.3235602377308948,0.3470960727670695,0.3687034118792706,0.3905193398607896,0.41432348476823644,0.44282547045092446,0.4771337219583898,0.526914605081834,0.6167875745892443,1.4109159218745448,0.9805025125628141,0.4670053160299532,0.0,0.9633906633906634,50,1145,1507,772020,no_split,narrow,individual,1,0.6899917125701904
1,1.0,0.48535560945274664,0.3367685936493022,0.3690933898264636,0.39842229798449513,0.4280697994781583,0.4597444508379977,0.49271979772778685,0.5316838979252104,0.5822728809738762,0.6639449013040464,1.3158723144803126,0.9470192307692308,0.4670053160299532,0.0,0.9633906633906634,50,1145,1507,772020,no_split,narrow,individual,1,0.6899917125701904
0,0.0,0.4584767756486606,0.34614762469988997,0.36913465473056584,0.3910380310071132,0.4135541822650985,0.4365585729368988,0.4627578882377601,0.49376005048279237,0.5336900917494606,0.5969018395278983,1.3201700798193419,0.99,0.4652495195545324,0.0,0.9847643979057592,50,1145,1538,772020,no_split,narrow,individual,1,0.6887593269348145
1,1.0,0.4716767153019413,0.3547455152819263,0.3812554823585898,0.40669271064006535,0.42993988130175287,0.453827276546945,0.48086919008714135,0.5108230284674482,0.5488838331562779,0.6124884066466493,1.1611700798193418,0.9797959183673469,0.4652495195545324,0.0,0.9847643979057592,50,1145,1538,772020,no_split,narrow,individual,1,0.6887593269348145
0,0.0,0.4624809821796922,0.3655874668948068,0.3849537236480965,0.4019763265063858,0.4198413463231056,0.4389414926474873,0.46084159405857317,0.48845908757053524,0.5254602539130353,0.5863104536193892,1.1942771496309104,0.9953191489361702,0.49332492590716576,0.0,0.9849180327868853,50,1145,1582,772020,no_split,narrow,individual,1,0.690044641494751
1,1.0,0.5259016754620255,0.3900850521002949,0.42861639918675387,0.4585915376758926,0.48504065723053774,0.5119783044578026,0.5409883357921094,0.5729439744901552,0.6139363830676098,0.6729826136965741,1.250315667560175,0.9739325842696629,0.49332492590716576,0.0,0.9849180327868853,50,1145,1582,772020,no_split,narrow,individual,1,0.690044641494751
0,0.0,0.44573505142963876,0.34369023024195383,0.3605528339583605,0.3755263144000715,0.39132584025205025,0.41020404334086696,0.4329476893130126,0.4648594913671414,0.5102139760596716,0.5897038608551817,1.316503511668291,0.988140703517588,0.477870770375244,0.0,0.9550375939849624,50,1145,1583,772020,no_split,narrow,individual,1,0.6851284503936768
1,1.0,0.5098458107261212,0.36932259772393095,0.4070779935092942,0.43702092500041867,0.4650421858279736,0.4938064792305096,0.5228681661174366,0.5555752185790677,0.5985801857474584,0.6645188390284965,1.4868064792305096,0.9221,0.477870770375244,0.0,0.9550375939849624,50,1145,1583,772020,no_split,narrow,individual,1,0.6851284503936768
0,0.0,0.5666002695374227,0.38991855429727296,0.42234815545557575,0.4516212883404599,0.4838489796991515,0.5189072695855583,0.5616662654565525,0.6138936398218853,0.69289766392016,0.8081161034913116,1.5308355057710652,0.9755191256830601,0.5793780606261154,0.0,0.9592307692307692,50,1145,1597,772020,no_split,narrow,individual,1,0.6977677345275879
1,1.0,0.5922970427765617,0.4040386337796547,0.44822933183313163,0.4862349799219647,0.5212856983849575,0.5569208993492314,0.5977233434474822,0.6467118517815246,0.7160365564445355,0.8210648980755879,1.5305019462939762,0.9427624309392265,0.5793780606261154,0.0,0.9592307692307692,50,1145,1597,772020,no_split,narrow,individual,1,0.6977677345275879
0,0.0,0.4210051398434626,0.32568694336117526,0.34527403670811146,0.36297468878748534,0.38055057935284947,0.39925690526818647,0.42068791600470856,0.4469303448684874,0.48329009259142053,0.5457212563472909,1.0602933776932213,0.9946448087431694,0.4447417728489271,0.0,0.98416,50,1145,1601,772020,no_split,narrow,individual,1,0.6911776065826416
1,1.0,0.46736575118226037,0.3411546433677953,0.37368865498675313,0.3999653134101647,0.42526440626234396,0.44995273729973195,0.47682731517814486,0.5114242887989395,0.5508016602329794,0.6126961708812816,1.2927197918001425,0.9741666666666666,0.4447417728489271,0.0,0.98416,50,1145,1601,772020,no_split,narrow,individual,1,0.6911776065826416
0,0.0,0.48771641169931135,0.35124316194035327,0.3773210377036328,0.4013103908366928,0.4253915315668689,0.451887889819385,0.48256067713627715,0.5227591924716918,0.5787779027800827,0.6740967218669266,1.4310379179955683,0.9884158415841584,0.5123565170969481,0.0,0.9750537634408603,50,1145,1614,772020,no_split,narrow,individual,1,0.6915774345397949
1,1.0,0.5416347599811984,0.37525543942746736,0.4173778580442891,0.45238817524853026,0.48626300299123404,0.5188817578298645,0.5552723179423249,0.596744825862012,0.6517539853248309,0.7302601319425913,1.4633919710226266,0.9591764705882353,0.5123565170969481,0.0,0.9750537634408603,50,1145,1614,772020,no_split,narrow,individual,1,0.6915774345397949
0,0.0,0.45375098797134816,0.33583953541549305,0.3632049774507861,0.3879260417301949,0.41246158626343826,0.4366132248800848,0.4625412820545754,0.49268045218161044,0.5328569691473146,0.5912926709400856,1.2805872787705195,0.9984530386740331,0.47535785915483175,0.0,0.9966315789473684,50,1145,1638,772020,no_split,narrow,individual,1,0.6965868473052979
1,1.0,0.49501033998001026,0.36050199682476425,0.3982912035463212,0.42728883679502194,0.4548907748953005,0.48314635083640195,0.5110655649371119,0.5444615862634382,0.5845872787705195,0.6444868412047428,1.1730073361672615,0.9949748743718593,0.47535785915483175,0.0,0.9966315789473684,50,1145,1638,772020,no_split,narrow,individual,1,0.6965868473052979
0,0.0,0.3950363890147574,0.3003593118199625,0.318632592913237,0.3356997891100707,0.35270156590581664,0.37108435983974336,0.39144020752091824,0.4168760970354267,0.4534464655004774,0.5220400326257874,1.1489676215439548,0.991938775510204,0.41840502012757985,0.0,0.9769272237196766,50,1145,1657,772020,no_split,narrow,individual,1,0.7101709842681885
1,1.0,0.44457788697394107,0.31665760180945013,0.34940944248951394,0.37646786148040307,0.40145712649215193,0.427624471617257,0.45566046252369935,0.4863684949733609,0.5274940295624845,0.5924684710265985,1.3690832868591314,0.9601142857142857,0.41840502012757985,0.0,0.9769272237196766,50,1145,1657,772020,no_split,narrow,individual,1,0.7101709842681885
0,0.0,0.45907766220121576,0.36379738560364666,0.38295779153239595,0.40183322293834683,0.4196749642145861,0.438441171521322,0.4613928246483062,0.4871567713507457,0.5213230097619915,0.5811420283688414,1.293276482459179,0.9962051282051282,0.47888975070830925,0.0,0.9896954314720812,50,1145,1663,772020,no_split,narrow,individual,1,0.6918869018554688
1,1.0,0.49830360628058695,0.3848928841521685,0.41494966012013845,0.43873150324185595,0.46144370792821926,0.48436870904183593,0.5086974101222479,0.5358049729196812,0.5722624510789212,0.6297180332239551,1.0027290997593366,0.9833165829145729,0.47888975070830925,0.0,0.9896954314720812,50,1145,1663,772020,no_split,narrow,individual,1,0.6918869018554688
0,0.0,0.4942063991232773,0.35859025206546163,0.38878868491938384,0.41527004796939104,0.4419246592873539,0.46829533319633676,0.49995887108405157,0.5368241992422966,0.5834962343642385,0.6613962640158776,1.3406800228493774,0.9916022099447513,0.5031517582392993,0.0,0.9884530386740331,50,1145,1761,772020,no_split,narrow,individual,1,0.6924939155578613
1,1.0,0.5120971173553215,0.368852136701708,0.404078138561661,0.4331459222567691,0.46227379385138245,0.49095887108405156,0.5226090223978349,0.560334996737883,0.6070989228707446,0.6796820953899295,1.3049678271331773,0.9853038674033149,0.5031517582392993,0.0,0.9884530386740331,50,1145,1761,772020,no_split,narrow,individual,1,0.6924939155578613
0,0.0,0.4627715551170262,0.3328568604630315,0.36012721045178436,0.38345025435738594,0.40580460894551107,0.4316910123544717,0.46073357396093345,0.49775382603305407,0.5484385616360984,0.6280492405165209,1.3747335739609334,0.9840217391304348,0.4795680721558042,0.0,0.9738918918918918,50,1145,1768,772020,no_split,narrow,individual,1,0.6929879188537598
1,1.0,0.49618398148448767,0.34605714068802074,0.38158644428241706,0.4118046089455111,0.44145120051435266,0.47101211364596535,0.5052971492760173,0.5445012785869442,0.5937049464448213,0.6757089040039195,1.3530014524155751,0.9638709677419355,0.4795680721558042,0.0,0.9738918918918918,50,1145,1768,772020,no_split,narrow,individual,1,0.6929879188537598
0,0.0,0.3840681672194748,0.2906323097284753,0.307598894274972,0.3231682486546195,0.34104356112427614,0.35870642845771145,0.3808676299476108,0.40697608065592916,0.44305631201263357,0.509166474802444,1.169946193784959,0.9802234636871509,0.40205354080415495,0.0,0.9589839572192513,50,1145,1813,772020,no_split,narrow,individual,1,0.6910960674285889
1,1.0,0.4185631914280409,0.300705617998643,0.3270532448499886,0.3510654304358299,0.37542787111252135,0.3994757503391036,0.42461228130469086,0.4564888719356048,0.4959509408217044,0.5579611712245327,1.3724892524961538,0.9394871794871795,0.40205354080415495,0.0,0.9589839572192513,50,1145,1813,772020,no_split,narrow,individual,1,0.6910960674285889
0,0.0,0.4026089354447491,0.3073279343104369,0.3269004394427439,0.34365538098640025,0.3606334741577374,0.37915032306576213,0.40014430086347796,0.42688059161896724,0.4641570854656933,0.5263884909338244,1.2222802588838468,0.9875121951219512,0.42561120663528285,0.0,0.9712871287128713,50,1145,1821,772020,no_split,narrow,individual,1,0.6944723129272461
1,1.0,0.4493070136406065,0.3237975688398897,0.354085361314473,0.3800883463328148,0.4047847853287294,0.43119658188353516,0.4585491451489323,0.48959117587301043,0.5289030186743793,0.5977337439397338,1.2024520281948785,0.954572864321608,0.42561120663528285,0.0,0.9712871287128713,50,1145,1821,772020,no_split,narrow,individual,1,0.6944723129272461
0,0.0,0.39891183125715013,0.31460668481745196,0.33136804814298215,0.3466456868004814,0.36179106865469024,0.3788845672146506,0.3976870964050785,0.4220716427437192,0.4543182330853136,0.5075967279072201,1.0233509820266313,0.987182320441989,0.40915357482127385,0.0,0.9779255319148936,50,1145,3286,772020,no_split,narrow,individual,1,0.686039924621582
1,1.0,0.41866001371925526,0.32295761835551745,0.3455917044573435,0.36546712183435953,0.38349144449889383,0.40242262393659384,0.42346712183435953,0.4484438847033939,0.4803374043113525,0.5302463725532098,1.030426391582984,0.9693333333333334,0.40915357482127385,0.0,0.9779255319148936,50,1145,3286,772020,no_split,narrow,individual,1,0.686039924621582
0,0.0,0.4761004484826918,0.3544809751091648,0.37965922726951673,0.40302586247362887,0.42703088901617864,0.4523814940058898,0.47939137120302333,0.5139675467692113,0.5584467766830825,0.6299155275383489,1.3519106448457274,0.995,0.497203471709465,0.0,0.9896703296703296,50,1145,3292,772020,no_split,narrow,individual,1,0.6920394897460938
1,1.0,0.5169594934536782,0.37302057028800417,0.40921636025823377,0.4395405851573901,0.4709863884295061,0.5004462997565413,0.5314820779497543,0.566415087668699,0.6111866531883453,0.6787307467610643,1.4924427343414033,0.9846808510638297,0.497203471709465,0.0,0.9896703296703296,50,1145,3292,772020,no_split,narrow,individual,1,0.6920394897460938
0,0.0,0.39902872815923845,0.3023026072969639,0.3230125362197318,0.34130500979690087,0.3592790289401397,0.3775255148462371,0.39895445381936234,0.42708596951748046,0.4632846729609319,0.5222789866183376,1.060917012380388,0.9960427807486631,0.4266472705580161,0.0,0.988,50,1145,3487,772020,no_split,narrow,individual,1,0.7040629386901855
1,1.0,0.45273144949019506,0.32385545711597663,0.35892003234413816,0.3860670561457496,0.41253825842629704,0.4378365854726759,0.46467256105624843,0.49642589656897496,0.5368587500991956,0.5975634527026559,1.0977630925040822,0.9804040404040404,0.4266472705580161,0.0,0.988,50,1145,3487,772020,no_split,narrow,individual,1,0.7040629386901855
0,0.0,0.40841965728610186,0.335504260184411,0.3504083819843977,0.36399816900149284,0.3771108782930555,0.3916907577494074,0.40894904798173703,0.42850702848211036,0.45704622390618366,0.5004666210033318,0.9304544891533498,0.9907462686567164,0.42611362021258625,0.0,0.9813197969543147,50,1145,3580,772020,no_split,narrow,individual,1,0.695281982421875
1,1.0,0.444541011654158,0.34745612815427074,0.3710456281242439,0.3911794464672087,0.4116945461398954,0.4316252227201408,0.4521812706355069,0.4769331031100005,0.5111085369719487,0.5588305991311744,1.0014666210033318,0.9715025906735751,0.42611362021258625,0.0,0.9813197969543147,50,1145,3580,772020,no_split,narrow,individual,1,0.695281982421875
0,0.0,0.5035491869330287,0.3526180289253499,0.3780413781329959,0.4035382064581509,0.4301161818522343,0.4584522502821968,0.4947808011359884,0.5396548160244917,0.6038197762590624,0.7176852304275975,1.499898960497972,0.9655913978494624,0.5165833567185691,0.0,0.9482320441988951,50,1145,3625,772020,no_split,narrow,individual,1,0.6967601776123047
1,1.0,0.5303581043328333,0.36154907824699994,0.39802538494510886,0.4295466622939224,0.4625844829664596,0.4966818180680076,0.5354570920350615,0.5807279415193759,0.639966644843014,0.743917785344752,1.475390692873014,0.9298863636363637,0.5165833567185691,0.0,0.9482320441988951,50,1145,3625,772020,no_split,narrow,individual,1,0.6967601776123047
0,0.0,0.5019491085023589,0.3797396289384146,0.4079684657615476,0.43145521217762145,0.4548238738875773,0.47938254938152947,0.5074775293827165,0.5409086529267485,0.5842568234615801,0.6527652883123213,1.4368998757489662,0.998314606741573,0.5269047343968201,0.0,0.9934959349593496,50,1145,3754,772020,no_split,narrow,individual,1,0.706629753112793
1,1.0,0.5501618098377316,0.40802366957216185,0.44599404802372167,0.47794035105922683,0.5058975932534532,0.5349782974789103,0.5639473895944626,0.6005873140503977,0.6439039801377632,0.7094252160602748,1.2219838950397142,0.9890052356020942,0.5269047343968201,0.0,0.9934959349593496,50,1145,3754,772020,no_split,narrow,individual,1,0.706629753112793
0,0.0,0.4098227915611501,0.3258846970962882,0.3445967988647905,0.3611024360215547,0.3776354758480531,0.3944535176282109,0.41413086442085817,0.43660722476799757,0.46595467463880347,0.5128396459365973,0.9063779250087489,0.9964893617021277,0.4259731652795935,0.0,0.9930051813471502,50,1145,3910,772020,no_split,narrow,individual,1,0.7200119495391846
1,1.0,0.4413078635577115,0.3436549471213514,0.36867281652162753,0.3924451026930852,0.4125839868034253,0.43257513440251527,0.4538295278203064,0.47660418751165573,0.5052450848549661,0.5470008835804199,0.9650963780706329,0.9896969696969697,0.4259731652795935,0.0,0.9930051813471502,50,1145,3910,772020,no_split,narrow,individual,1,0.7200119495391846
0,0.0,0.4034718823162375,0.33458131590087964,0.34840620111978765,0.3608065430445795,0.3741612487385613,0.3885639317543512,0.40433347815388604,0.42373880446295725,0.4492265951402109,0.49155156333690186,0.8698042502870723,0.9932596685082873,0.4177083469861997,0.0,0.9837368421052631,50,1145,4222,772020,no_split,narrow,individual,1,0.6966331005096436
1,1.0,0.4306570912337533,0.34737433366016696,0.3677642969892459,0.3854641311173437,0.40283854989092793,0.4190503142846676,0.43776504442582886,0.4593817420627251,0.48598177352764227,0.5253841879684314,1.0220480756812154,0.9750753768844221,0.4177083469861997,0.0,0.9837368421052631,50,1145,4222,772020,no_split,narrow,individual,1,0.6966331005096436
0,0.0,0.48716228535260403,0.31946589320751273,0.34822209877756605,0.3775993915275422,0.40709122477658377,0.44009487557628146,0.4786581519989536,0.5271883955070001,0.6011067026148142,0.7189832052155491,1.4690912247765837,0.9748484848484849,0.5086937012750528,0.0,0.9579345088161209,50,1145,4264,772020,no_split,narrow,individual,1,0.7041161060333252
1,1.0,0.5301169191275394,0.33620127069945016,0.37759141254312795,0.41939222995457215,0.4570657298074455,0.4961012870556582,0.5387343237213874,0.5897295968397978,0.6581113493347326,0.7658819758596453,1.4514658932075126,0.941105527638191,0.5086937012750528,0.0,0.9579345088161209,50,1145,4264,772020,no_split,narrow,individual,1,0.7041161060333252
0,0.0,0.41793695919210144,0.3349865016435668,0.35445088852776024,0.3710423588313509,0.38706383241137293,0.4042314874723422,0.4231442325502614,0.44522943703920054,0.4730641480797071,0.5169865016435667,0.9222356458329295,0.9991534391534391,0.4367810326910663,0.0,0.9964130434782609,50,1145,5281,772020,no_split,narrow,individual,1,0.7047266960144043
1,1.0,0.4566778477262861,0.35562498386006486,0.3822540422356351,0.4049732044254084,0.42614001011359887,0.446400059260141,0.46854766864093395,0.49324116475374125,0.5240333883420719,0.5684630568934095,0.9586249838600649,0.9935195530726257,0.4367810326910663,0.0,0.9964130434782609,50,1145,5281,772020,no_split,narrow,individual,1,0.7047266960144043
0,0.0,0.4408953552591706,0.350367604026192,0.3715198433293371,0.39040878374356647,0.40696246128386193,0.4257092417219474,0.4451223778859337,0.4693021639373311,0.4988639167020934,0.5515160987585106,1.054790969449677,0.9986956521739131,0.4669687301122847,0.0,0.9948108108108108,50,1145,5332,772020,no_split,narrow,individual,1,0.7031252384185791
1,1.0,0.49276174609601026,0.3788869185043569,0.4115908023592612,0.436640259807397,0.4612656666118098,0.4840809583347613,0.5089565708025672,0.5343195810133475,0.5670354480157678,0.6160462285096262,1.08764638018604,0.9909677419354839,0.4669687301122847,0.0,0.9948108108108108,50,1145,5332,772020,no_split,narrow,individual,1,0.7031252384185791
0,0.0,0.4346613000147229,0.32754413395836446,0.3516702649283685,0.37231299662400263,0.3929464082337515,0.414666645092867,0.43870587781406617,0.4677391618116233,0.5071044016098417,0.5648110665512065,1.218327392720271,0.9970558375634517,0.457923450216467,0.0,0.9931794871794872,50,1145,5575,772020,no_split,narrow,individual,1,0.7087388038635254
1,1.0,0.481667717520838,0.35453663556906934,0.388459666687302,0.4164725704256536,0.44289463113334543,0.4694124990155107,0.4952261395882241,0.5267407242499624,0.5637147007964838,0.6232211702273442,1.1813273927202708,0.9892227979274612,0.457923450216467,0.0,0.9931794871794872,50,1145,5575,772020,no_split,narrow,individual,1,0.7087388038635254
0,0.0,0.4362704447877372,0.3171069787631558,0.3418118597741347,0.36463750973791176,0.38713693463210047,0.4118991020187112,0.438666081195559,0.4711776157454904,0.5135234280986787,0.5860687139574999,1.1829377426918604,0.9930569948186528,0.45749193601116955,0.0,0.9871938775510204,50,1145,5731,772020,no_split,narrow,individual,1,0.7084062099456787
1,1.0,0.47807358327811655,0.33976039878633235,0.3741572959517525,0.4048116916301291,0.4324972023473704,0.4605461743391158,0.4902001239437638,0.5251538791492136,0.5686421370770453,0.6387205418993046,1.2497602540595099,0.9815075376884422,0.45749193601116955,0.0,0.9871938775510204,50,1145,5731,772020,no_split,narrow,individual,1,0.7084062099456787
0,0.0,0.4310235552806772,0.3461716598441745,0.3636820943495035,0.3805001737090441,0.3953283546086845,0.41174175684558606,0.43090524877899367,0.4544509952732062,0.48537287511458166,0.539593183788037,1.1061769184316286,0.9973913043478261,0.462094345471413,0.0,0.9893188010899182,50,1145,5761,772020,no_split,narrow,individual,1,0.7059788703918457
1,1.0,0.4933349214008958,0.3754891108439058,0.4097550734199744,0.436404841738966,0.4601867759252172,0.48524594358563206,0.5088200697389795,0.5348924714184987,0.568330748654083,0.6217750001261539,1.0096682270241357,0.9812021857923497,0.462094345471413,0.0,0.9893188010899182,50,1145,5761,772020,no_split,narrow,individual,1,0.7059788703918457
0,0.0,0.4468122914244868,0.3213243928625666,0.3417286932929661,0.36255190452491476,0.38485611779063844,0.4084589777277323,0.44040668265103666,0.4804899645840692,0.5321257265686576,0.6203794860593472,1.3183389067621627,0.9332142857142857,0.45339615030950425,0.0,0.9158807588075881,50,1145,5803,772020,no_split,narrow,individual,1,0.6995675563812256
1,1.0,0.4588990771387726,0.3276448921361453,0.35260062902433864,0.37633746007920743,0.40043342622674755,0.42745834115653053,0.45844556864705427,0.49686756310491415,0.5468045034883209,0.6315713945220869,1.4328404758779623,0.9013930348258706,0.45339615030950425,0.0,0.9158807588075881,50,1145,5803,772020,no_split,narrow,individual,1,0.6995675563812256
0,0.0,0.5031264817683331,0.34878877439223616,0.3760787558315652,0.40007267754752657,0.42791136478265723,0.45812465400067254,0.49302641654156765,0.539526158125784,0.6080802754025749,0.7218198807175952,1.4465103076458876,0.9866666666666667,0.5317306084218872,0.0,0.9697157622739018,50,1145,5815,772020,no_split,narrow,individual,1,0.710547924041748
1,1.0,0.5626415194829858,0.37749970464923804,0.4241460421627194,0.46212229294260543,0.4996865167596174,0.536673975376129,0.5733716829398628,0.621725489137333,0.6801724495344634,0.7768420432022547,1.4878837948893529,0.9513978494623656,0.5317306084218872,0.0,0.9697157622739018,50,1145,5815,772020,no_split,narrow,individual,1,0.710547924041748
0,0.0,0.41208428436268774,0.33908134631372605,0.35408134631372606,0.36868675979607995,0.38291215443978444,0.3971675108932417,0.4131302993631337,0.4332079514144108,0.45929204201487783,0.5020760405663615,1.1121393602472194,0.9976404494382023,0.440198705267075,0.0,0.991008174386921,50,1145,6055,772020,no_split,narrow,individual,1,0.7061302661895752
1,1.0,0.4666768371241169,0.36204251762088785,0.39107907941321374,0.4145444134558156,0.4360549108461724,0.4575024540713037,0.4792700324424862,0.5054946311409405,0.535727107984744,0.5809747469447767,0.926491278456499,0.9847619047619047,0.440198705267075,0.0,0.991008174386921,50,1145,6055,772020,no_split,narrow,individual,1,0.7061302661895752
0,0.0,0.4781088763296693,0.3376602481986963,0.363211301373619,0.38688604718618025,0.41185339309274405,0.4379706612869414,0.4698413164967322,0.50992968967062,0.5709536376559243,0.6748816828490598,1.495919084491607,0.9726530612244898,0.4920926133654672,0.0,0.9597267759562842,50,1145,6109,772020,no_split,narrow,individual,1,0.6958000659942627
1,1.0,0.5082150395949754,0.3503613922771207,0.3841579995501952,0.41431150760203167,0.44601841039747386,0.4778782942828262,0.515208293789168,0.5554778507329534,0.6128230899948588,0.7041030922646586,1.4719962318127893,0.9448235294117647,0.4920926133654672,0.0,0.9597267759562842,50,1145,6109,772020,no_split,narrow,individual,1,0.6958000659942627
0,0.0,0.39540698606487884,0.3139915548577317,0.3300073239413681,0.34416290450920184,0.35906043574500374,0.37430778832077505,0.3925916106326744,0.415359343848128,0.44597974300030774,0.5014054825847742,1.0870108443602264,0.994811320754717,0.4231835941369117,0.0,0.9813429256594725,50,1145,6214,772020,no_split,narrow,individual,1,0.704118013381958
1,1.0,0.4519086717528678,0.33670035523049896,0.36799455298620254,0.39395898745710883,0.4165492365423965,0.440053123155569,0.46432724838556994,0.49267839242564293,0.525390763003812,0.5779276736211575,1.143063031199693,0.9674146341463414,0.4231835941369117,0.0,0.9813429256594725,50,1145,6214,772020,no_split,narrow,individual,1,0.704118013381958
0,0.0,0.4699956111549403,0.3316621027752839,0.3597496734221502,0.384653566414578,0.41148411470521534,0.4405030156267663,0.4705959172036136,0.5103731921964769,0.5628675945351506,0.6462258506758033,1.4349552081131391,0.9776595744680852,0.47588630334975934,0.0,0.9724137931034482,50,1145,6253,772020,no_split,narrow,individual,1,0.7031357288360596
1,1.0,0.48174582786100806,0.3387585490969631,0.3688493937847106,0.3988687593765321,0.42668281505599354,0.4558822472643021,0.48778023068829834,0.5255656513537444,0.5742038899173719,0.652821046018941,1.4828692585942669,0.9671957671957672,0.47588630334975934,0.0,0.9724137931034482,50,1145,6253,772020,no_split,narrow,individual,1,0.7031357288360596
0,0.0,0.45823287326311735,0.34815872151912064,0.37076692502598096,0.39273668775390974,0.41379240692119,0.43577522130113616,0.4611110107172817,0.4915966980069929,0.5314406405690697,0.5987981938107203,1.274833641665337,0.9952486187845304,0.476676921125236,0.0,0.9884239130434782,50,1145,6262,772020,no_split,narrow,individual,1,0.702322244644165
1,1.0,0.49452918135541496,0.3658007053308642,0.3974901623668039,0.42621979876137867,0.4527087397327803,0.4797352863783494,0.5072825304186864,0.5393055511951842,0.579623100802634,0.640003252268279,1.2570184245887857,0.9818181818181818,0.476676921125236,0.0,0.9884239130434782,50,1145,6262,772020,no_split,narrow,individual,1,0.702322244644165
0,0.0,0.4948653243585376,0.39134259127369475,0.4140395532503233,0.43376288240280597,0.454166087898589,0.4761335207946521,0.49981334002589783,0.5267777261257213,0.5632233730064704,0.6248217852421079,1.2315004860001713,0.9971122994652406,0.5111789554908325,0.0,0.9933695652173913,50,1145,6361,772020,no_split,narrow,individual,1,0.7054448127746582
1,1.0,0.5280333699755789,0.40655366417362926,0.43992857298831384,0.4670278729112461,0.4898318125888108,0.5146934160477361,0.5402785708746792,0.5693079035620234,0.60756649494292,0.6636436036891001,1.113643592147711,0.9895027624309393,0.5111789554908325,0.0,0.9933695652173913,50,1145,6361,772020,no_split,narrow,individual,1,0.7054448127746582
0,0.0,0.4152632820604766,0.3148759884855634,0.3385286161338476,0.35784351850300355,0.3779732011094606,0.3982773057341885,0.42058579874836094,0.44727789037268306,0.48327483228680695,0.5385134462242945,1.2367934579617192,0.9953005464480874,0.4271405262364904,0.0,0.9937368421052631,50,1145,6427,772020,no_split,narrow,individual,1,0.705904483795166
1,1.0,0.4381737022984727,0.32679247813139806,0.35527123099569935,0.3788712484460003,0.40158109152981314,0.4243072629954312,0.44751754873753957,0.47701672407424917,0.5123705638336904,0.5684786009389424,1.0094293087404782,0.9922842639593908,0.4271405262364904,0.0,0.9937368421052631,50,1145,6427,772020,no_split,narrow,individual,1,0.705904483795166
0,0.0,0.46763950400072607,0.3671908959447721,0.3881114953057651,0.40637797137036774,0.4251100249560893,0.4452949544834309,0.46919921139737353,0.4958056403067995,0.5335123715225515,0.596557934763005,1.188129011995245,0.9871204188481676,0.477025899171263,0.0,0.9805277044854881,50,1145,6583,772020,no_split,narrow,individual,1,0.6983506679534912
1,1.0,0.48656207724345757,0.37590376360055605,0.40132386607632425,0.4245016498101761,0.4463130887561452,0.46766894945596893,0.4931085546064134,0.5232045461446869,0.5599919040069686,0.6191543677046394,1.0871992113973736,0.9738297872340426,0.477025899171263,0.0,0.9805277044854881,50,1145,6583,772020,no_split,narrow,individual,1,0.6983506679534912
0,0.0,0.44795431171978395,0.3520830859282868,0.3696660840616686,0.3863802542723049,0.4038866070012719,0.42305592547887566,0.44384911057602805,0.47124534232474774,0.5069648757247778,0.5728318930938092,1.3304877276149223,0.987897435897436,0.4719211835146558,0.0,0.9711794871794872,50,1145,6634,772020,no_split,narrow,individual,1,0.6942405700683594
1,1.0,0.49588805530952756,0.36895231176214327,0.39972884938220515,0.42579034831089413,0.4519644673794077,0.4777289175191067,0.5053327033061245,0.5377438978842147,0.5784776459274699,0.642909320462716,1.2490874912123788,0.9544615384615385,0.4719211835146558,0.0,0.9711794871794872,50,1145,6634,772020,no_split,narrow,individual,1,0.6942405700683594
0,0.0,0.45221713885139425,0.35435628447475714,0.3747815811895519,0.39313121492359754,0.4107031013070004,0.4306522487135838,0.4526534238488557,0.47972302051084637,0.5146687533435801,0.5759418549793536,1.0951388562177038,0.9945263157894737,0.4882406392022715,0.0,0.9834133333333334,50,1145,6844,772020,no_split,narrow,individual,1,0.7062664031982422
1,1.0,0.5252377476707399,0.3834934750277474,0.4217655081425022,0.45272302051084634,0.479819374751773,0.5099276271637256,0.5397618105317279,0.5735507020611165,0.6174502550958109,0.6843330204519396,1.2944436023846426,0.972,0.4882406392022715,0.0,0.9834133333333334,50,1145,6844,772020,no_split,narrow,individual,1,0.7062664031982422
0,0.0,0.44659251163075536,0.34366912877237243,0.3638475574892462,0.3817610320266526,0.3995926973504565,0.41882651927238607,0.44188872863778733,0.47165783180147597,0.511660338453261,0.5827840614877977,1.2669708454790778,0.9892896174863388,0.4699786065370254,0.0,0.971008174386921,50,1145,7624,772020,no_split,narrow,individual,1,0.7030277252197266
1,1.0,0.49323760310141346,0.3604598648378569,0.3903804736700823,0.4195503864853067,0.4471202174412692,0.4745560503717833,0.5041159731490754,0.5366753095295276,0.5820654669421323,0.6485216922780044,1.2833489455607685,0.9528260869565217,0.4699786065370254,0.0,0.971008174386921,50,1145,7624,772020,no_split,narrow,individual,1,0.7030277252197266
0,0.0,0.4058807551668929,0.3208808577890907,0.3366039877913493,0.35131985520335834,0.3660575430681545,0.3816135438858838,0.4011780641509387,0.4254492072671842,0.45924293955951384,0.5203685025570811,1.1677179696494107,0.9919786096256684,0.43593252545772937,0.0,0.9675718015665796,50,1145,7756,772020,no_split,narrow,individual,1,0.7041571140289307
1,1.0,0.4646043675209254,0.3424547036464417,0.3739913625515378,0.4013238056118683,0.42680159728289335,0.4516026964736375,0.4783945230062345,0.5071045410416296,0.5431550000005683,0.5988504711880198,1.1743528195179538,0.9442857142857143,0.43593252545772937,0.0,0.9675718015665796,50,1145,7756,772020,no_split,narrow,individual,1,0.7041571140289307
0,0.0,0.4348582548233594,0.3216994409146229,0.34691157226388386,0.3693269129180016,0.3903714310924328,0.41293212620818653,0.43926364348820834,0.4704665456762238,0.5116086595098471,0.5745058194760299,1.0934854369623146,0.994375,0.4468437266370849,0.0,0.9908021390374332,50,1145,7768,772020,no_split,narrow,individual,1,0.7048916816711426
1,1.0,0.45948774085815797,0.33266879053008036,0.36537790912693424,0.39309143395008606,0.4175440670571902,0.4424223017614187,0.468205378283697,0.5019925540007417,0.5431027555392122,0.6062240747815065,1.1651897713323773,0.9870329670329671,0.4468437266370849,0.0,0.9908021390374332,50,1145,7768,772020,no_split,narrow,individual,1,0.7048916816711426
0,0.0,0.41578994901913635,0.3039431577834573,0.3243076261578271,0.34369381516887787,0.3628058654157807,0.3841254470712065,0.41050023673380653,0.4425689224738372,0.4875834265701383,0.5663538094044613,1.2160528345119874,0.9854545454545455,0.44506420984370076,0.0,0.9608602150537634,50,1145,7807,772020,no_split,narrow,individual,1,0.7034018039703369
1,1.0,0.47465494916366596,0.32309814392241143,0.35972359372743495,0.39208021144319843,0.42001105724559423,0.4527566772692988,0.48742638148705253,0.5270117565585436,0.5745298509804677,0.6511084744929644,1.2732220390864692,0.936,0.44506420984370076,0.0,0.9608602150537634,50,1145,7807,772020,no_split,narrow,individual,1,0.7034018039703369
0,0.0,0.39944972821047625,0.31658798421540185,0.3334681844385558,0.34821335693547906,0.3636555955291093,0.3792145727529327,0.39830768637597236,0.42216414235154054,0.4535366248686284,0.5082143478932973,1.0412265644997862,0.9923076923076923,0.41760107428822124,0.0,0.9809418282548477,50,1145,7813,772020,no_split,narrow,individual,1,0.695979118347168
1,1.0,0.43605663287006247,0.3312586038907157,0.3565935028453499,0.37974428195885895,0.39985098042751405,0.42081868679744117,0.44422249405647524,0.4717578874444029,0.5063718295088218,0.5588192704142423,1.078893499139053,0.9693854748603352,0.41760107428822124,0.0,0.9809418282548477,50,1145,7813,772020,no_split,narrow,individual,1,0.695979118347168
0,0.0,0.39850900853274174,0.31937780279284966,0.33903112670621677,0.3554884108648043,0.37067394781825175,0.38716323442656453,0.4048233588981884,0.42395050068599954,0.449968438026357,0.4901612512388741,0.8711186120915517,0.9992553191489362,0.42092910859593957,0.0,0.9971287128712871,50,1145,7828,772020,no_split,narrow,individual,1,0.7051591873168945
1,1.0,0.4404428993916858,0.34102398596278094,0.3709284840483296,0.3930741285066073,0.41338512714796,0.4323761640090007,0.45400363086897827,0.4760741285066073,0.5053751807386913,0.5478485084663468,0.8848954598588542,0.9952777777777778,0.42092910859593957,0.0,0.9971287128712871,50,1145,7828,772020,no_split,narrow,individual,1,0.7051591873168945
0,0.0,0.5425611152267018,0.38814097428588745,0.41777710045178085,0.44585226936749917,0.47462219594628324,0.5054693643568151,0.5412014479140246,0.5861931398783199,0.6493278802902974,0.7455156079754429,1.5141243741640087,0.9898412698412699,0.5632259977171655,0.0,0.9782945736434109,50,1145,7840,772020,no_split,narrow,individual,1,0.7020528316497803
1,1.0,0.5829515673671539,0.40955922131478667,0.4514366961221267,0.4882240870271469,0.5223939801271815,0.5573682471139018,0.5982738123990679,0.6415536982332829,0.6965793146077499,0.787431065563082,1.396626596283921,0.9672727272727273,0.5632259977171655,0.0,0.9782945736434109,50,1145,7840,772020,no_split,narrow,individual,1,0.7020528316497803
0,0.0,0.471808759217079,0.3862658613284527,0.4051416201814341,0.4228457986335114,0.4392748102328127,0.4571585735135646,0.4765380997134659,0.4991120315733037,0.5295451566643713,0.5737631934675709,0.9166941662456254,0.9988888888888889,0.49630168810596786,0.0,0.9958933333333333,50,1145,7924,772020,no_split,narrow,individual,1,0.7112541198730469
1,1.0,0.5189105455418652,0.41691888372416736,0.4475793318006026,0.4706879908386908,0.4900107185129635,0.5095873938236813,0.5313815567932049,0.5544666636802976,0.5851318258379165,0.628577498225561,1.0345451566643715,0.9931282051282051,0.49630168810596786,0.0,0.9958933333333333,50,1145,7924,772020,no_split,narrow,individual,1,0.7112541198730469
0,0.0,0.453020870967061,0.3481369033702065,0.3737066547506552,0.39549922715539876,0.41544950502221534,0.4373159393597801,0.46013267198992935,0.48671639042932646,0.523739768133764,0.5778248566617653,1.1819036317304317,0.9982105263157894,0.46871934798238407,0.0,0.9960506329113924,50,1145,7939,772020,no_split,narrow,individual,1,0.7014057636260986
1,1.0,0.48326915594780556,0.36682073206288024,0.399438725366267,0.4251029122681487,0.44871054082690703,0.47178363970941173,0.49615855222305166,0.5240490585794012,0.5590021594841296,0.611931519037252,1.3079830588784718,0.9940487804878049,0.46871934798238407,0.0,0.9960506329113924,50,1145,7939,772020,no_split,narrow,individual,1,0.7014057636260986
0,0.0,0.44856805505420366,0.3267098641752487,0.35482534916406744,0.3789546700900395,0.4027989374594929,0.42748683714682756,0.45564389843701864,0.48748369843045575,0.5287225831587229,0.5955362661980377,1.1089554376093789,0.995030303030303,0.4591087124758781,0.0,0.9920338983050847,50,1145,8026,772020,no_split,narrow,individual,1,0.7002944946289062
1,1.0,0.46831087371702235,0.3376587256793053,0.36929191430218616,0.3972210354339332,0.4239145981871749,0.45063390322973806,0.4806140739706068,0.5137098641752487,0.5576005766268566,0.6236063690114064,1.1192325323336012,0.9894179894179894,0.4591087124758781,0.0,0.9920338983050847,50,1145,8026,772020,no_split,narrow,individual,1,0.7002944946289062
0,0.0,0.46449218323495123,0.3275249708757487,0.3512902799050884,0.37371058033525484,0.3983309898233471,0.42369098030630836,0.4550570607377258,0.49857298452665627,0.5574990985921408,0.6543432009710163,1.4380183969326883,0.9454545454545454,0.4721287367475144,0.0,0.9299178082191781,50,1145,8311,772020,no_split,narrow,individual,1,0.6918373107910156
1,1.0,0.48015140813430823,0.3334520289462135,0.3635253855772114,0.39069260623469215,0.4196901075381169,0.4480181831238471,0.47947483128283447,0.522259679775914,0.58008259933692,0.6668854858489285,1.3894133731658742,0.9135955056179775,0.4721287367475144,0.0,0.9299178082191781,50,1145,8311,772020,no_split,narrow,individual,1,0.6918373107910156
0,0.0,0.38722795424499923,0.3021819601213642,0.31964239633656155,0.3357822386806591,0.3507678345336187,0.3669095698095767,0.3858348376339393,0.40901540009475035,0.4404696128069724,0.49620592112996875,1.1077275664010646,0.9949222797927462,0.4199080657352333,0.0,0.9774525745257453,50,1145,8446,772020,no_split,narrow,individual,1,0.6969501972198486
1,1.0,0.45574477890350135,0.322157171272752,0.3579428921446858,0.38703785674965363,0.4138184303741615,0.4417743149140153,0.4708427769087552,0.502615698538589,0.5416224667765515,0.6001794047959882,1.3344423838443595,0.9582954545454545,0.4199080657352333,0.0,0.9774525745257453,50,1145,8446,772020,no_split,narrow,individual,1,0.6969501972198486
0,0.0,0.4830999827902607,0.38491125756054095,0.4058159707864741,0.4246342556304338,0.4432614235909119,0.4625625001735246,0.4838954709744556,0.5106051561125908,0.5473815499334802,0.6066551201404261,1.1420863318346277,0.9900502512562814,0.4968555901778479,0.0,0.985974025974026,50,1145,8521,772020,no_split,narrow,individual,1,0.6890075206756592
1,1.0,0.5115726109849977,0.39639322899177015,0.4269606357384559,0.44969432456886865,0.47188540669680107,0.49489547097445563,0.5199781868219943,0.5483707965600636,0.5869630252657217,0.645820784489728,1.3851688345216293,0.9816129032258064,0.4968555901778479,0.0,0.985974025974026,50,1145,8521,772020,no_split,narrow,individual,1,0.6890075206756592
0,0.0,0.5516147027116305,0.40882761198951595,0.4416815522938046,0.469151056289012,0.4967139094240479,0.526437217150713,0.5591183149397677,0.5997458528324996,0.6488282235294189,0.7257788566483551,1.3771183149397677,0.994535519125683,0.5607858139271253,0.0,0.991919770773639,50,1145,8704,772020,no_split,narrow,individual,1,0.7901606559753418
1,1.0,0.5708961353273393,0.42320266914270716,0.4612973131082049,0.4922846983170818,0.5211341981348644,0.5508127463887296,0.5832835115319484,0.6191023060772657,0.6678171328564235,0.7418147825510722,1.2747705320371556,0.9890361445783132,0.5607858139271253,0.0,0.991919770773639,50,1145,8704,772020,no_split,narrow,individual,1,0.7901606559753418
0,0.0,0.4355367484771817,0.3222411463812322,0.34786965789008084,0.37108141516360965,0.39300863005945835,0.41543797275261374,0.4422395969689776,0.4717174663993273,0.5102291241911548,0.5737920038400965,1.0800377245193364,0.9986473429951691,0.4565570624868436,0.0,0.9955670103092783,50,1145,8755,772020,no_split,narrow,individual,1,0.7077710628509521
1,1.0,0.4805968691166778,0.34964691725452796,0.3858486052591415,0.41572814603235025,0.4423438528807823,0.4687862268986607,0.49570250009155387,0.5276410415260206,0.5656963704899507,0.6257072762632695,1.0382065068453425,0.9920441988950276,0.4565570624868436,0.0,0.9955670103092783,50,1145,8755,772020,no_split,narrow,individual,1,0.7077710628509521
0,0.0,0.4431361321063325,0.3306254091751398,0.35277523870485794,0.37191305433980876,0.3927806581323234,0.4146062942698246,0.44007712302877394,0.47336593075829086,0.5171143442912967,0.5963383881866788,1.2908138780667155,0.9968269230769231,0.4679849705678709,0.0,0.9851,50,1145,8785,772020,no_split,narrow,individual,1,0.6985068321228027
1,1.0,0.49490454556787095,0.3629896256636026,0.3980765272873374,0.4276046371570078,0.4546278955243121,0.4810336282944682,0.5087003957985127,0.542306794329773,0.5801145655532345,0.641057260106414,1.3420767844310675,0.9723958333333333,0.4679849705678709,0.0,0.9851,50,1145,8785,772020,no_split,narrow,individual,1,0.6985068321228027
0,0.0,0.40995909935625086,0.30746509619297807,0.32556924149254646,0.34231217962923494,0.3599946250652053,0.3796031061964959,0.40307876196729414,0.43366892930040013,0.4767271019117931,0.551122177638325,1.2683183848903248,0.9846808510638297,0.44094800763169806,0.0,0.9519794344473008,50,1145,8788,772020,no_split,narrow,individual,1,0.6927738189697266
1,1.0,0.4699326581579869,0.3267731709239386,0.3605650205494398,0.39088968937768,0.4199199180476293,0.4505719221032054,0.4830885283742305,0.5191138899465592,0.5639495242999698,0.6350233060508681,1.3145588605451157,0.9213930348258706,0.44094800763169806,0.0,0.9519794344473008,50,1145,8788,772020,no_split,narrow,individual,1,0.6927738189697266
0,0.0,0.43179353812118987,0.36962735803193314,0.38276360343813204,0.3940192182509218,0.40568309504606614,0.4182998461061874,0.43231230342349547,0.4498527321688633,0.47297663151677605,0.5119872475873548,0.9168750002467785,0.9953333333333333,0.45177260187346674,0.0,0.9829508196721312,50,1145,161753,772020,no_split,narrow,individual,1,0.6930625438690186
1,1.0,0.47110717969825083,0.38467495445169964,0.4078025172811178,0.4267636034381321,0.4432011233065062,0.4610201231642311,0.48067651914340975,0.5016048091833744,0.5275913540167538,0.568976631516776,0.8745939040815227,0.9709677419354839,0.45177260187346674,0.0,0.9829508196721312,50,1145,161753,772020,no_split,narrow,individual,1,0.6930625438690186
0,0.0,0.445928904455378,0.36092270034149854,0.38041568036032386,0.3972145978160659,0.4136837443786573,0.4307526659791845,0.44939626535034827,0.47235195387670625,0.49997930879636676,0.5479952876893536,1.1205346174467303,0.9979381443298969,0.46706037462427463,0.0,0.9925531914893617,50,1145,337788,772020,no_split,narrow,individual,1,0.6975400447845459
1,1.0,0.4895851285405712,0.3829773101377433,0.41158271416726566,0.4355159334642858,0.4567826922988082,0.4781605054855014,0.500391795092671,0.5271209893298924,0.5586200456969086,0.6108756216902687,1.0295159334642858,0.9868131868131869,0.46706037462427463,0.0,0.9925531914893617,50,1145,337788,772020,no_split,narrow,individual,1,0.6975400447845459
