,congruency,mean_rt,qu10_rt,qu20_rt,qu30_rt,qu40_rt,qu50_rt,qu60_rt,qu70_rt,qu80_rt,qu90_rt,qu100_rt,mean_acc,mean_rt_overall,nonconvergent_trials,accuracy_overall,n_posterior_draws,condition,id,slurm_id,split,spacing,estimation_level,number_parts,time_post_sampling_sec
0,0.0,0.4228348401229416,0.33299423516453713,0.34715524203331655,0.36164050719864954,0.3767693290257953,0.3949558490409665,0.41617399171753516,0.4441312793723459,0.4817409721398868,0.5489579991485507,1.2750402286621447,0.9761052631578947,0.43203178247883123,0.0,0.972910052910053,50,1165,1108,772028,no_split,wide,individual,1,0.4456977844238281
1,1.0,0.44132656464701775,0.34380380124510596,0.3612923808501058,0.37809561188268875,0.3959255762574262,0.4150785652189541,0.43811690177576357,0.4668708908731941,0.5059941625721696,0.5720477476696588,1.2682923808501059,0.9696808510638298,0.43203178247883123,0.0,0.972910052910053,50,1165,1108,772028,no_split,wide,individual,1,0.4456977844238281
0,0.0,0.4569684046141579,0.3456423481423717,0.3652558300320331,0.38326726830800584,0.40248897197158523,0.42351228589955126,0.45088152740429904,0.4831254233519731,0.5281420647402815,0.6114224390310483,1.360464133011574,0.9857142857142858,0.4613535154467949,0.0,0.9837894736842105,50,1165,1507,772028,no_split,wide,individual,1,0.4525887966156006
1,1.0,0.46569270888851444,0.350579820949563,0.3715235227692755,0.3915104262234327,0.4117830611459642,0.43476798700362307,0.4613600204447652,0.4971367901308909,0.5452637789738983,0.6184739600979745,1.3333534173297144,0.9818848167539267,0.4613535154467949,0.0,0.9837894736842105,50,1165,1507,772028,no_split,wide,individual,1,0.4525887966156006
0,0.0,0.4584581961694503,0.35564019860967433,0.37380584760500535,0.3906571004858995,0.408626378700381,0.42866929989599944,0.45248229402410345,0.48343072169510254,0.5268110263768571,0.5981063515898929,1.2761452679637586,0.9922105263157894,0.4672014090441568,0.0,0.9902887139107611,50,1165,1538,772028,no_split,wide,individual,1,0.45282530784606934
1,1.0,0.475898845935226,0.3666646832429154,0.38847717531026565,0.4081452679637587,0.4275296478019903,0.45000148353392516,0.4742296631638511,0.5059002919718564,0.5485723838784071,0.6164956245863086,1.3434601294577724,0.9883769633507853,0.4672014090441568,0.0,0.9902887139107611,50,1165,1538,772028,no_split,wide,individual,1,0.45282530784606934
0,0.0,0.4704520348660904,0.36608946512496654,0.38444403455062376,0.40192101600100494,0.4205079968468871,0.4410952726663566,0.46577598585329305,0.49604761959404714,0.5399303275771574,0.6117631026019151,1.4000995635207443,0.9955434782608695,0.4788688021986403,0.0,0.9936216216216216,50,1165,1582,772028,no_split,wide,individual,1,0.45240259170532227
1,1.0,0.4871950666566467,0.38022673569457677,0.4000322818773248,0.419777748497684,0.4398811551529312,0.46101944442996945,0.4863232912761871,0.5165835136768377,0.5573412034686611,0.6298090761804717,1.3775835136768377,0.9917204301075269,0.4788688021986403,0.0,0.9936216216216216,50,1165,1582,772028,no_split,wide,individual,1,0.45240259170532227
0,0.0,0.4418189939905841,0.3563630073912122,0.3702335165935702,0.38311167681773184,0.3961457106595626,0.4123347745524753,0.43240308281677,0.4600524620290231,0.4980548736879787,0.5667475602441657,1.2572055700807954,0.9815706806282722,0.45533679558450363,0.0,0.9697650130548303,50,1165,1583,772028,no_split,wide,individual,1,0.4527595043182373
1,1.0,0.4687841919617883,0.36730445555512964,0.38513840085026546,0.4032470276415134,0.42195036742979697,0.44235826421877145,0.466599235306835,0.4953558926325511,0.5372349993371407,0.6060377233352529,1.2392055700807953,0.9580208333333333,0.45533679558450363,0.0,0.9697650130548303,50,1165,1583,772028,no_split,wide,individual,1,0.4527595043182373
0,0.0,0.580181164964201,0.38475509393647667,0.421467184875808,0.45538897540834866,0.48885892925482294,0.5289728452807034,0.5773757524613266,0.6374426102778854,0.7153776844021161,0.8394786720531032,1.4688644507643676,0.9905084745762712,0.5832043312894012,0.0,0.9895054945054945,50,1165,1597,772028,no_split,wide,individual,1,0.46026611328125
1,1.0,0.586065830966195,0.3922455757524697,0.4293771752357137,0.46224297330925285,0.49660552245919076,0.5356820115120395,0.5801282605867732,0.6371231629350157,0.716548746016395,0.8510612330623117,1.4627124317111226,0.9885561497326203,0.5832043312894012,0.0,0.9895054945054945,50,1165,1597,772028,no_split,wide,individual,1,0.46026611328125
0,0.0,0.41832726666935816,0.32957648791497846,0.3478422731583254,0.36529368978873583,0.3822606877091128,0.39881324561665277,0.41758558001369184,0.4428848838726931,0.4787616161610439,0.5332425542508232,1.0492515590590252,0.9991578947368421,0.42409947358506433,0.0,0.9990501319261214,50,1165,1601,772028,no_split,wide,individual,1,0.45831894874572754
1,1.0,0.42990222127810224,0.33924980938560634,0.3585948946000352,0.3755276307956844,0.3922104001030379,0.4101624589775948,0.4308334996856417,0.4548413026332519,0.49029950192921984,0.5474349849458127,1.1348422731583254,0.9989417989417989,0.42409947358506433,0.0,0.9990501319261214,50,1165,1601,772028,no_split,wide,individual,1,0.45831894874572754
0,0.0,0.48213117147176776,0.34215877084518115,0.36550388213731105,0.3877847590461384,0.41148421806572444,0.43858079316664866,0.47369724015627085,0.5159311226840629,0.5761951042725414,0.6782881471240475,1.4526755652621428,0.9806315789473684,0.4905937504191362,0.0,0.9771578947368421,50,1165,1614,772028,no_split,wide,individual,1,0.4561917781829834
1,1.0,0.49905632936650457,0.35211153961611474,0.37846507598068674,0.40480446664229186,0.43075824343495,0.46175237205773917,0.49479460989562435,0.5387163420722089,0.5994222148656848,0.6972506215379193,1.4127101342198538,0.9736842105263158,0.4905937504191362,0.0,0.9771578947368421,50,1165,1614,772028,no_split,wide,individual,1,0.4561917781829834
0,0.0,0.43949252676041184,0.3713397989330798,0.3866805980530859,0.3994723649825573,0.4120289812081043,0.4251019924857856,0.440162372040684,0.4579070215500815,0.4843508543449534,0.526159161802039,0.9569367706492481,0.9997894736842106,0.44435325752432947,0.0,0.9995275590551181,50,1165,161753,772028,no_split,wide,individual,1,0.45868349075317383
1,1.0,0.44918853943608006,0.37988766219832126,0.39519998614164903,0.4080335361078611,0.4217418838136921,0.43640593236714903,0.45232017643932354,0.4710815193516517,0.49514095348706516,0.536792420162759,0.8879812039403091,0.9992670157068063,0.44435325752432947,0.0,0.9995275590551181,50,1165,161753,772028,no_split,wide,individual,1,0.45868349075317383
0,0.0,0.4782638597039824,0.3624215519381725,0.3833477430261496,0.4024607700367423,0.4239655245837178,0.4464354321870396,0.4752893489460371,0.5106930447597761,0.5576162138088909,0.633423782223085,1.3532013194684795,0.9940425531914894,0.48554555565637675,0.0,0.9941424802110818,50,1165,1638,772028,no_split,wide,individual,1,0.45127320289611816
1,1.0,0.4927128794210371,0.37268416762070405,0.3962506143534856,0.4174607588817724,0.44067373447946506,0.46529275179413043,0.4924607700367423,0.5263562399015307,0.5705753883572491,0.6460323672529579,1.4033558980722334,0.9942408376963351,0.48554555565637675,0.0,0.9941424802110818,50,1165,1638,772028,no_split,wide,individual,1,0.45127320289611816
0,0.0,0.4013202274748515,0.32104051913551396,0.33483037761992934,0.3477506103561138,0.3617015211018269,0.37729090671979076,0.3959380512625796,0.4198270845130669,0.4547420674839808,0.5133829126694783,1.106039296810331,0.9872631578947368,0.4103845732601591,0.0,0.9820052770448549,50,1165,1657,772028,no_split,wide,individual,1,0.45261549949645996
1,1.0,0.41949687854697626,0.3302909067197908,0.3464518616233859,0.36279708809721883,0.3785205904730184,0.39660931673599065,0.418309528021724,0.4439042242825377,0.4798941061135118,0.5390665340359857,1.2200944267038576,0.9767195767195768,0.4103845732601591,0.0,0.9820052770448549,50,1165,1657,772028,no_split,wide,individual,1,0.45261549949645996
0,0.0,0.4677743383635033,0.3732841833546057,0.389268587327964,0.40470622291593117,0.4212328563058585,0.4398121310581972,0.46281213105819724,0.49028463849177084,0.5292809973944497,0.5997809623087788,1.3929542286582288,0.9931914893617021,0.4788222838774062,0.0,0.9917989417989418,50,1165,1663,772028,no_split,wide,individual,1,0.449923038482666
1,1.0,0.48975393522800503,0.3872040667175754,0.4066912674498896,0.42496539275290174,0.44371823988767295,0.46484783369803184,0.48807505161389186,0.5196780473889973,0.5588663078928174,0.6249467337272185,1.4331471739207005,0.990421052631579,0.4788222838774062,0.0,0.9917989417989418,50,1165,1663,772028,no_split,wide,individual,1,0.449923038482666
0,0.0,0.5252267207186799,0.3780358576924236,0.4047583724541171,0.4294828234917142,0.4555025651201299,0.4860645804522748,0.5208261731978847,0.565243437792059,0.6244024468737752,0.7253031426569406,1.42949384095525,0.9919354838709677,0.5337693143362531,0.0,0.9912064343163539,50,1165,1761,772028,no_split,wide,individual,1,0.4459950923919678
1,1.0,0.542266225635016,0.3921060795598259,0.42276393271570684,0.44834443854726386,0.4757627994727132,0.5059319067231081,0.5401703867525495,0.581862596013318,0.6409010461134896,0.7386965666729998,1.482762681542288,0.9904812834224599,0.5337693143362531,0.0,0.9912064343163539,50,1165,1761,772028,no_split,wide,individual,1,0.4459950923919678
0,0.0,0.4540370969128303,0.3274859157144756,0.3471671353559734,0.3666103423965204,0.3871808886614225,0.4122828522385627,0.4431451774401906,0.4832807211960944,0.5356878822473459,0.6341814840054437,1.4485910408802904,0.9654450261780104,0.4641520707348198,0.0,0.9589528795811518,50,1165,1768,772028,no_split,wide,individual,1,0.4442574977874756
1,1.0,0.47426704455680935,0.33840252391943404,0.36199251772919094,0.384580042450012,0.4104028225057242,0.437092719727906,0.4690187204682397,0.508306886125074,0.566284983281031,0.6615538638712748,1.4641518611197497,0.9524607329842932,0.4641520707348198,0.0,0.9589528795811518,50,1165,1768,772028,no_split,wide,individual,1,0.4442574977874756
0,0.0,0.38608897229263067,0.29602913680372756,0.3103232839368369,0.3251003102442422,0.3402902475366475,0.3586002971919739,0.3798171300952787,0.40549140220629887,0.4451282611985414,0.5138205603803658,1.2394157406156745,0.9706382978723405,0.3895083871862477,0.0,0.9675531914893617,50,1165,1813,772028,no_split,wide,individual,1,0.4416935443878174
1,1.0,0.39292780207986466,0.29917191693518264,0.31541149713491107,0.33097731567052957,0.3484846360079605,0.36714450582910385,0.38891854695239325,0.41742263191961587,0.45644219940362735,0.5219006692145213,1.0614341275769208,0.9644680851063829,0.3895083871862477,0.0,0.9675531914893617,50,1165,1813,772028,no_split,wide,individual,1,0.4416935443878174
0,0.0,0.3982796949498071,0.30777033845546065,0.324743157295471,0.34052730625740474,0.3556702903217543,0.37344862009122626,0.39571580927266525,0.422743157295471,0.45986163267267827,0.5241476787085055,1.0334433299029215,0.9934736842105263,0.4010242997294728,0.0,0.9929133858267717,50,1165,1821,772028,no_split,wide,individual,1,0.4387807846069336
1,1.0,0.4037545348506062,0.3131469047810673,0.3300523998794018,0.3457487520460323,0.36177033845546064,0.38014545757987717,0.40036215098783046,0.4258066351588086,0.46333294648178075,0.5247187214420739,1.0134483339010214,0.9923560209424084,0.4010242997294728,0.0,0.9929133858267717,50,1165,1821,772028,no_split,wide,individual,1,0.4387807846069336
0,0.0,0.4527312937896892,0.3448137608034369,0.36710128413985127,0.3867177672492521,0.4056745294900062,0.427152822134939,0.45057272298079476,0.482186408223441,0.5244687853503301,0.5932112813883523,1.193145815052595,0.998848167539267,0.45313319670825886,0.0,0.998563829787234,50,1165,275,772028,no_split,wide,individual,1,0.44150590896606445
1,1.0,0.4535481343160794,0.34526910625079293,0.3675620615905016,0.387200650943857,0.40709837896042544,0.428152822134939,0.4545576674124904,0.4855715827302385,0.5261705454580295,0.5947346309206939,1.240693305032361,0.9982702702702703,0.45313319670825886,0.0,0.998563829787234,50,1165,275,772028,no_split,wide,individual,1,0.44150590896606445
0,0.0,0.388822863206015,0.3066235248903717,0.32131367923244614,0.3342487396700382,0.3485463975295431,0.36465830777612834,0.3846072481717719,0.4081370204122109,0.44218209679381937,0.5082571017731518,0.9585271929562102,0.9887234042553191,0.3930739515857204,0.0,0.9874801061007957,50,1165,3286,772028,no_split,wide,individual,1,0.43535852432250977
1,1.0,0.39730254743431626,0.3103581994193041,0.3273156265543979,0.34224164840546,0.3575032693556798,0.375214654144583,0.3943357279919595,0.41954179435781136,0.45417796681200284,0.5112397049669356,1.1723227385743826,0.9862433862433863,0.3930739515857204,0.0,0.9874801061007957,50,1165,3286,772028,no_split,wide,individual,1,0.43535852432250977
0,0.0,0.4643709805152829,0.35418723621692666,0.3731872362169266,0.3913826413726577,0.4092960191836365,0.4324998766099374,0.4577444403088051,0.4889957660167001,0.5357793254253842,0.619163851479947,1.4032529504342064,0.9946031746031746,0.4719403851026822,0.0,0.9927704485488127,50,1165,3292,772028,no_split,wide,individual,1,0.43535494804382324
1,1.0,0.4794699507185689,0.3651873389086911,0.3877361870024354,0.40898936471265784,0.4294590178391887,0.45245599844012685,0.47795296438482526,0.5100054299678634,0.5542012901760912,0.6282129339445146,1.4498693387963586,0.9909473684210526,0.4719403851026822,0.0,0.9927704485488127,50,1165,3292,772028,no_split,wide,individual,1,0.43535494804382324
0,0.0,0.45641652430944313,0.36243296781537504,0.38118887569993953,0.398572687382232,0.41651072600893435,0.4351025435845505,0.45573621710434364,0.481523610116759,0.5180220338251509,0.577938984849099,1.3481209473733609,0.9987368421052631,0.4591698537748388,0.0,0.998740157480315,50,1165,337788,772028,no_split,wide,individual,1,0.43701672554016113
1,1.0,0.46190876790271945,0.3684965670509242,0.38825478931552637,0.4057496587511432,0.4221613636016425,0.4402621682678707,0.46203008962879066,0.4870072321469837,0.523189796447943,0.581772844787903,1.388362917590845,0.9987434554973822,0.4591698537748388,0.0,0.998740157480315,50,1165,337788,772028,no_split,wide,individual,1,0.43701672554016113
0,0.0,0.4123076631428802,0.32265587243115057,0.3373313313618543,0.35190963470332604,0.367108892422284,0.3839552511845778,0.40408489634081896,0.4303874387403004,0.4683702915360343,0.5380255299933929,1.1574630373758747,0.9891978609625669,0.4262174702270042,0.0,0.9816666666666667,50,1165,3487,772028,no_split,wide,individual,1,0.435321569442749
1,1.0,0.4402776536039295,0.33531866523139603,0.355657583813467,0.3743512284936197,0.39362152606496786,0.41450345872446615,0.4393537874692419,0.4706348278636054,0.5105953458973275,0.5785141388739913,1.1020753018017058,0.9740540540540541,0.4262174702270042,0.0,0.9816666666666667,50,1165,3487,772028,no_split,wide,individual,1,0.435321569442749
0,0.0,0.4149730330456128,0.34288497809528323,0.35600862787658005,0.36800862787658006,0.3804744934229669,0.3940086278765801,0.41027971742646585,0.4319332173310058,0.4628830037603989,0.5145095133562284,1.1368854194335158,0.991413612565445,0.4212911861800487,0.0,0.9892063492063492,50,1165,3580,772028,no_split,wide,individual,1,0.43750476837158203
1,1.0,0.42774448697511414,0.3491429707071232,0.3642235712583039,0.37887024523921087,0.39385529139558134,0.4095491222466231,0.4273969340796632,0.4490066055143996,0.4776080545709845,0.5269463830198959,0.9662983870691132,0.986951871657754,0.4212911861800487,0.0,0.9892063492063492,50,1165,3580,772028,no_split,wide,individual,1,0.43750476837158203
0,0.0,0.4770481739703118,0.35281887650033944,0.3719665360966666,0.39067537905516236,0.4119178410391097,0.43654083269899613,0.46669176605551016,0.5050396124613297,0.5603172484656234,0.6527504535303524,1.4772362443192613,0.9894505494505494,0.4958994197963089,0.0,0.9793370165745856,50,1165,3625,772028,no_split,wide,individual,1,0.4364180564880371
1,1.0,0.5149601239092617,0.37485488810377243,0.40297653338958295,0.42768852846202843,0.45364246036834477,0.4808515091771245,0.5132892931837446,0.554436025288486,0.6085894310650791,0.697820228152295,1.3983948539389248,0.9691111111111111,0.4958994197963089,0.0,0.9793370165745856,50,1165,3625,772028,no_split,wide,individual,1,0.4364180564880371
0,0.0,0.5528068906928386,0.42763096781838505,0.4537203756281113,0.4756040239455563,0.49907307971933457,0.5240058036395873,0.5528581767874804,0.5880893718651621,0.6355710450054841,0.7145242762504925,1.4795120752364213,0.9992670157068063,0.5575463292054329,0.0,0.9992125984251968,50,1165,3754,772028,no_split,wide,individual,1,0.44185853004455566
1,1.0,0.5623107121312514,0.43612839073806337,0.4643741051259298,0.4886464979727783,0.5115269973691482,0.5365090798619137,0.5644095855546716,0.5978834615406659,0.6429527400031984,0.7192119667706753,1.400807754339609,0.9991578947368421,0.5575463292054329,0.0,0.9992125984251968,50,1165,3754,772028,no_split,wide,individual,1,0.44185853004455566
0,0.0,0.42151494566681846,0.3319537815058325,0.3472814231236314,0.3614515713720928,0.37729887089529396,0.39413658709132415,0.41491488032872337,0.4427326506324456,0.4828975966074383,0.542892826612283,1.3819615617412542,0.9814814814814815,0.4260237625198569,0.0,0.978311345646438,50,1165,3910,772028,no_split,wide,individual,1,0.4404325485229492
1,1.0,0.4305088487578794,0.33613437349319564,0.3538834353473697,0.3702267157328321,0.3870707624439822,0.40602482975944765,0.4271294156569518,0.45372540652189797,0.49189970967256935,0.5619058623199389,1.2532267157328323,0.9751578947368421,0.4260237625198569,0.0,0.978311345646438,50,1165,3910,772028,no_split,wide,individual,1,0.4404325485229492
0,0.0,0.41245394192413987,0.3380065179029361,0.35114050566923005,0.362566607959089,0.3752900701783458,0.3896620119281656,0.40772505151713234,0.4301758288247567,0.4620278080130645,0.517762890992718,1.141032708959055,0.9852631578947368,0.4183770698230428,0.0,0.981688654353562,50,1165,4222,772028,no_split,wide,individual,1,0.4391956329345703
1,1.0,0.42433153702299814,0.3427989053415009,0.35742998137586524,0.37148729353626386,0.38582987344310227,0.40234323935660904,0.4207424683086274,0.44498856619080124,0.47874641015351715,0.5332898705311273,1.2004439156330178,0.9780952380952381,0.4183770698230428,0.0,0.981688654353562,50,1165,4222,772028,no_split,wide,individual,1,0.4391956329345703
0,0.0,0.454732116390952,0.33405910033787667,0.352205780827733,0.37007456226185176,0.38947858370416033,0.4118865845248908,0.4402783366908514,0.47885131691460303,0.5345885500512788,0.6311345120751283,1.467128843350304,0.9713227513227514,0.47346624337507903,0.0,0.9583068783068783,50,1165,4264,772028,no_split,wide,individual,1,0.43791723251342773
1,1.0,0.4922003703592061,0.3555530416626059,0.38081504530679805,0.4034608499174424,0.4291288433503041,0.45699901914970364,0.48863646431963764,0.5292242221844451,0.5833392924383363,0.6741184958193315,1.4285747296433722,0.9452910052910053,0.47346624337507903,0.0,0.9583068783068783,50,1165,4264,772028,no_split,wide,individual,1,0.43791723251342773
0,0.0,0.43715156240424596,0.3689650622922557,0.38157478106459625,0.39280806764248305,0.4042572318272162,0.41750071908200176,0.4335534053911284,0.45457931888536623,0.48071955314541687,0.5309819175658447,0.9667778846232897,0.9936170212765958,0.44237790963828855,0.0,0.9924266666666667,50,1165,5281,772028,no_split,wide,individual,1,0.4426107406616211
1,1.0,0.4476322052532618,0.37482476680683796,0.3895728549866185,0.4022572318272162,0.41526099677646816,0.4298790667659552,0.44632768754924884,0.46676665700370273,0.4947951961787946,0.5441563045836815,1.0037106489020702,0.9912299465240642,0.44237790963828855,0.0,0.9924266666666667,50,1165,5281,772028,no_split,wide,individual,1,0.4426107406616211
0,0.0,0.4776860945792808,0.37404143455117683,0.39668012172898987,0.417650103019992,0.4373421238479955,0.45794091622346766,0.48052961349491263,0.510131539958349,0.5455897992603815,0.6073860001975709,1.2409678228879495,1.0,0.48097365775388395,0.0,1.0,50,1165,5332,772028,no_split,wide,individual,1,0.44489216804504395
1,1.0,0.48431424614098073,0.38032635444542634,0.4036258443849065,0.42495975088860494,0.4446244807885524,0.4653222492088536,0.48819773712355036,0.5163856607985551,0.5533476701145513,0.6121816674938385,1.208406293971416,1.0,0.48097365775388395,0.0,1.0,50,1165,5332,772028,no_split,wide,individual,1,0.44489216804504395
0,0.0,0.45279433863002533,0.3473778907660817,0.3655123601034245,0.3830018678142893,0.4013065597271669,0.4215631085552788,0.4464163066655856,0.47690547569561254,0.5223427370000172,0.5989261393282153,1.2348892768941864,0.9917894736842106,0.46616319351129176,0.0,0.9889709762532981,50,1165,5575,772028,no_split,wide,individual,1,0.44243407249450684
1,1.0,0.47960278307446974,0.3647588562165813,0.38712134161952894,0.4084186133181612,0.4284535736275158,0.4512290433260091,0.476519178614735,0.5098921810227148,0.5555464069505971,0.6319354418050558,1.3876901651569267,0.9861375661375661,0.46616319351129176,0.0,0.9889709762532981,50,1165,5575,772028,no_split,wide,individual,1,0.44243407249450684
0,0.0,0.452390155061365,0.3465961601052985,0.3645328966912218,0.38191478781730487,0.39944999621849103,0.4211489357329691,0.44542823784351665,0.4775569549726778,0.5252656029869478,0.5975549413376975,1.4199147878173048,0.9824043715846994,0.4604751711896846,0.0,0.977843665768194,50,1165,5731,772028,no_split,wide,individual,1,0.44072866439819336
1,1.0,0.46834516029331474,0.3574542284998692,0.3780974447905535,0.3973094041923957,0.4174528177394098,0.4393842474326648,0.46440186670641964,0.49725363796948385,0.540805498052479,0.6204704326973521,1.4063886095695655,0.973404255319149,0.4604751711896846,0.0,0.977843665768194,50,1165,5731,772028,no_split,wide,individual,1,0.44072866439819336
0,0.0,0.4276659308263445,0.33991094395114124,0.3561654592377788,0.37133674847427567,0.38625039867064337,0.40255833340544406,0.4224990689410525,0.4486790196044323,0.4853983839843706,0.5429657510880206,1.2844442374268084,0.9987234042553191,0.44386915109836894,0.0,0.9963395225464191,50,1165,5761,772028,no_split,wide,individual,1,0.43912339210510254
1,1.0,0.4599866400462027,0.35878833500531837,0.3807795357733745,0.3992874733256367,0.41838100659184774,0.4393539859348288,0.4620728980855444,0.4904769045481496,0.5296668768993905,0.5876789957500047,1.1612874733256366,0.993968253968254,0.44386915109836894,0.0,0.9963395225464191,50,1165,5761,772028,no_split,wide,individual,1,0.43912339210510254
0,0.0,0.43554762560530935,0.318247984926683,0.337272015107428,0.35515619048982777,0.375294115301654,0.3991846128842678,0.42619511756195416,0.4621003950901936,0.5144429496668559,0.6017378698835137,1.4294840432031422,0.9473958333333333,0.43903106310530937,0.0,0.9433854166666666,50,1165,5803,772028,no_split,wide,individual,1,0.4428377151489258
1,1.0,0.44251450060530945,0.3229850779436825,0.34218778898589103,0.3612669103023051,0.38116451082991576,0.40592892992766005,0.4349636738192044,0.471401001113174,0.5240193541134092,0.610392769613108,1.3859211149417978,0.939375,0.43903106310530937,0.0,0.9433854166666666,50,1165,5803,772028,no_split,wide,individual,1,0.4428377151489258
0,0.0,0.512782845986693,0.364392640069282,0.3912885193719724,0.41540371990544717,0.4410558409180001,0.47036399348687596,0.505368703078741,0.5487020464220302,0.6114103762293089,0.7184481364653093,1.4730558409180001,0.9908333333333333,0.5203861787746511,0.0,0.9892670157068063,50,1165,5815,772028,no_split,wide,individual,1,0.44251227378845215
1,1.0,0.5280695466445877,0.3815792924415078,0.41038755969849633,0.4365777178226105,0.46353133234401234,0.4908426689372142,0.52530675493035,0.5654419642466763,0.6204003403569859,0.7219224495842959,1.435055840918,0.9876842105263158,0.5203861787746511,0.0,0.9892670157068063,50,1165,5815,772028,no_split,wide,individual,1,0.44251227378845215
0,0.0,0.4262434253354913,0.3498156130830911,0.364902704649851,0.37876304631840674,0.3919478282886281,0.40663456340422066,0.4247787803143526,0.4459614968076094,0.4755954666015889,0.5268422673633213,1.069332369902804,0.999578947368421,0.4350766935059173,0.0,0.9990476190476191,50,1165,6055,772028,no_split,wide,individual,1,0.442596435546875
1,1.0,0.44400393261432675,0.3603956051541746,0.3775697578891578,0.3940446761646328,0.40938032613115066,0.42595448204394004,0.44476579090179835,0.4692593157936199,0.4979015535032822,0.549816120877644,1.183332369902804,0.9985106382978723,0.4350766935059173,0.0,0.9990476190476191,50,1165,6055,772028,no_split,wide,individual,1,0.442596435546875
0,0.0,0.4660534703176694,0.3386102516717571,0.3584135967932418,0.3798181562501887,0.4016124637178635,0.42751773853928465,0.45793177837016946,0.4959982068172185,0.5508118837281691,0.6461755324316035,1.4410030505595377,0.9832432432432432,0.47516313686357187,0.0,0.9808579088471849,50,1165,6109,772028,no_split,wide,individual,1,0.44526147842407227
1,1.0,0.4841274363901248,0.35673176907812837,0.3808644483759902,0.40339076506064947,0.4263339427023979,0.45157175198473337,0.4805899517292163,0.5169964885882107,0.565019690115054,0.6526908820457977,1.4397078783533424,0.9785106382978723,0.47516313686357187,0.0,0.9808579088471849,50,1165,6109,772028,no_split,wide,individual,1,0.44526147842407227
0,0.0,0.39494535019355376,0.3258917005419558,0.337886040913932,0.3489180822415562,0.3607448104834921,0.3741235091320749,0.3900941318878403,0.41062321320818784,0.43785755947549454,0.49076213417361353,1.0164603910979741,0.9926701570680628,0.40707364404343,0.0,0.9871540469973891,50,1165,6214,772028,no_split,wide,individual,1,0.4392414093017578
1,1.0,0.41913876969617153,0.3365286239868095,0.35282646615348484,0.368165456541006,0.38349018827136366,0.40018312330907413,0.4187910073441301,0.44315234680462634,0.4740828609339044,0.5259522595090923,1.0561752888432907,0.9816666666666667,0.40707364404343,0.0,0.9871540469973891,50,1165,6214,772028,no_split,wide,individual,1,0.4392414093017578
0,0.0,0.4703267107686879,0.3351206573927921,0.35861912622218817,0.3810012136006303,0.40573341943706276,0.43388331645659917,0.46498601776512544,0.5040319253390485,0.5601084359442667,0.6492733843788877,1.4547091651848074,0.982010582010582,0.4764422134141906,0.0,0.9788359788359788,50,1165,6253,772028,no_split,wide,individual,1,0.44208312034606934
1,1.0,0.4825577160596931,0.3474520414303385,0.3725603964270134,0.39429637533315276,0.41855445351084375,0.4452172884931533,0.4760615572553149,0.5145157152712198,0.5694834537437455,0.6659018243878085,1.4438696473158046,0.9756613756613757,0.4764422134141906,0.0,0.9788359788359788,50,1165,6253,772028,no_split,wide,individual,1,0.44208312034606934
0,0.0,0.46669077788272517,0.364659408113099,0.3841668824613412,0.40118863357230716,0.4190429436078716,0.438676295949875,0.46223058730750377,0.49323401387677895,0.5335879849549687,0.6044108438580632,1.1630429436078715,0.994421052631579,0.46861716771557504,0.0,0.9937007874015747,50,1165,6262,772028,no_split,wide,individual,1,0.43927788734436035
1,1.0,0.4705334717377817,0.36870653220636534,0.38855579335745893,0.4059131840274979,0.4244912526604041,0.4440122854805128,0.46610402834940945,0.4955598648232381,0.5356189587526271,0.6057710732243725,1.373406882316199,0.9929842931937173,0.46861716771557504,0.0,0.9937007874015747,50,1165,6262,772028,no_split,wide,individual,1,0.43927788734436035
0,0.0,0.5005428845391371,0.38818145265316434,0.4115791280651554,0.4327640321014422,0.454572444740918,0.4773315980972518,0.5033033923745565,0.5356920207200077,0.5761880394736342,0.6451910468738367,1.203289305125632,0.9998947368421053,0.5129748845391371,0.0,0.9998421052631579,50,1165,6361,772028,no_split,wide,individual,1,0.45543909072875977
1,1.0,0.5254068845391372,0.4160053713579727,0.44126475039229945,0.4614356849567501,0.48274044191721693,0.5042918004749526,0.5296172907415406,0.5590218249696989,0.5996382798250519,0.66130567504197,1.1454798019682548,0.9997894736842106,0.5129748845391371,0.0,0.9998421052631579,50,1165,6361,772028,no_split,wide,individual,1,0.45543909072875977
0,0.0,0.415595688775444,0.33959118522192605,0.353565946104287,0.3665913767293883,0.38005089271232945,0.39514491735028934,0.4125760417513426,0.43413450253417546,0.46624509712287227,0.516026945507073,1.0684956528437286,0.9933684210526316,0.42062808816441777,0.0,0.9921372031662269,50,1165,6427,772028,no_split,wide,individual,1,0.4428901672363281
1,1.0,0.42568711400518505,0.3449929148455598,0.36156034555542027,0.374591458804015,0.3900570910606127,0.40650836026543463,0.42506531843508405,0.44712858072622264,0.4776028445843321,0.5301529259948466,1.0664336194479274,0.990899470899471,0.42062808816441777,0.0,0.9921372031662269,50,1165,6427,772028,no_split,wide,individual,1,0.4428901672363281
0,0.0,0.4670635783991565,0.37149870830387527,0.3885144291687679,0.40508181515233865,0.4215367962040119,0.44053561614383996,0.4638370399431499,0.4913652262647089,0.5294018078802655,0.5965513594024803,1.251718374902108,0.9888297872340426,0.4713626955622772,0.0,0.9869866666666667,50,1165,6583,772028,no_split,wide,individual,1,0.4397003650665283
1,1.0,0.4756848026567513,0.37652237407135764,0.39522548027236315,0.41265322799938875,0.4302918472451333,0.44916063622819236,0.4732014901643531,0.5023531070956538,0.5427850337226086,0.6083349362379387,1.1260121916592396,0.9851336898395722,0.4713626955622772,0.0,0.9869866666666667,50,1165,6583,772028,no_split,wide,individual,1,0.4397003650665283
0,0.0,0.4523849528324885,0.34810791591198836,0.3657015687419428,0.38186239236198344,0.40078068781327086,0.4208191040412612,0.44528154805659637,0.47679021191878346,0.5221049542244669,0.6004077940805562,1.2055820147493292,0.984973544973545,0.4599446894139898,0.0,0.9811229946524064,50,1165,6634,772028,no_split,wide,individual,1,0.441500186920166
1,1.0,0.46766787975941543,0.3549674759030412,0.37637831399624283,0.39510265347911827,0.41656284232602875,0.4394416289858122,0.4652428107052771,0.4965874434558502,0.5400323708204557,0.6141106375510699,1.3337994625461058,0.9771891891891892,0.4599446894139898,0.0,0.9811229946524064,50,1165,6634,772028,no_split,wide,individual,1,0.441500186920166
0,0.0,0.45802494647497694,0.36830936109016854,0.38362865349452974,0.3986536126325634,0.4142187700240237,0.4320516188487553,0.4523235497134688,0.4785541998208991,0.5160231750360524,0.5845344268938751,1.1399637317937932,0.994375,0.46854106157506403,0.0,0.9932637075718016,50,1165,6844,772028,no_split,wide,individual,1,0.44022607803344727
1,1.0,0.47911223486939236,0.3818855160436937,0.401441242546681,0.41881765634978185,0.4374211293767514,0.45690983675729163,0.4794938128896986,0.5070751292570401,0.5447298654122679,0.6043114195302236,1.219441242546681,0.9921465968586387,0.46854106157506403,0.0,0.9932637075718016,50,1165,6844,772028,no_split,wide,individual,1,0.44022607803344727
0,0.0,0.44558057710251314,0.33084090263319366,0.3500990261313624,0.36877421227694007,0.3881926956656806,0.4115465449174607,0.43779717729177287,0.47276888509310894,0.5195806794129777,0.6036861077817564,1.4088052761364345,0.997578947368421,0.4739503318558887,0.0,0.9948167539267015,50,1165,7624,772028,no_split,wide,individual,1,0.4412400722503662
1,1.0,0.5020245683305834,0.36362741503908014,0.3936520769157467,0.42050650500995923,0.44636337225709316,0.4727146439416345,0.5036927447614539,0.541679562521537,0.5938616540054829,0.6747904052708049,1.4498463825129586,0.9920833333333333,0.4739503318558887,0.0,0.9948167539267015,50,1165,7624,772028,no_split,wide,individual,1,0.4412400722503662
0,0.0,0.41928587726355865,0.32726505940533596,0.3429758403149574,0.3569629305735841,0.3721240425400852,0.3903983220609165,0.41203007943337633,0.44088694503714637,0.48038607832928676,0.5484579956447694,1.4533923430693836,0.9869791666666666,0.4269388948246406,0.0,0.9816230366492147,50,1165,7756,772028,no_split,wide,individual,1,0.4407999515533447
1,1.0,0.434672470465313,0.3349607936984406,0.3533815502028065,0.3704007136575297,0.38782629244569883,0.40740430105244946,0.43164604770126946,0.46105133138062493,0.5016924446608126,0.5724224830492054,1.2439921085409904,0.9762105263157895,0.4269388948246406,0.0,0.9816230366492147,50,1165,7756,772028,no_split,wide,individual,1,0.4407999515533447
0,0.0,0.4245226631288232,0.3202746268871013,0.33687620129568946,0.35323244348407407,0.37047475560964027,0.39126780371470193,0.4159297980098808,0.44723599024392907,0.4931735058080712,0.5749370900639169,1.3907861990771735,0.9863829787234043,0.43675484127040093,0.0,0.9781769436997318,50,1165,7768,772028,no_split,wide,individual,1,0.44043445587158203
1,1.0,0.4491853790575178,0.3356437555985235,0.357232338305056,0.3780691176110491,0.39881182660328257,0.42181940922956407,0.44800271855024176,0.4812320989035433,0.5256017281974593,0.5992488751881091,1.3900027185502417,0.9698378378378378,0.43675484127040093,0.0,0.9781769436997318,50,1165,7768,772028,no_split,wide,individual,1,0.44043445587158203
0,0.0,0.41333714054587434,0.303338948400044,0.32040314652027674,0.3372940222195817,0.35487192176137555,0.37646319982730353,0.40257263841389174,0.4393255537883369,0.48798756976489777,0.5715906237266936,1.3115722962242498,0.9710994764397906,0.42486918243069105,0.0,0.9589005235602094,50,1165,7807,772028,no_split,wide,individual,1,0.4416346549987793
1,1.0,0.4364012243155079,0.3175632532087527,0.34034131720066113,0.36058053604926726,0.38141662109649166,0.404534064579967,0.4320248277700175,0.46632473559634113,0.5128719217613755,0.5935746566999156,1.4239641008858661,0.9467015706806283,0.42486918243069105,0.0,0.9589005235602094,50,1165,7807,772028,no_split,wide,individual,1,0.4416346549987793
0,0.0,0.4016029458455389,0.3211702238787811,0.3349280666422855,0.34731552910112046,0.3609102327667225,0.3772186304960241,0.3951985058283597,0.4212073889752565,0.4552702099750891,0.5149521691514182,1.072691453345963,0.9822916666666667,0.40847695257126065,0.0,0.9751706036745407,50,1165,7813,772028,no_split,wide,individual,1,0.44239163398742676
1,1.0,0.41546007051485107,0.3280320929007414,0.3442845847810454,0.3593709180361624,0.37490755758533534,0.39325313790490474,0.4133654071661843,0.4387302025059239,0.4752457696239854,0.5321563320157233,1.2077428381917088,0.967936507936508,0.40847695257126065,0.0,0.9751706036745407,50,1165,7813,772028,no_split,wide,individual,1,0.44239163398742676
0,0.0,0.4245376778565581,0.342774575768318,0.3586072188793835,0.3733027876714763,0.38829422722174317,0.40462442833810164,0.4244155412826637,0.4473747669698963,0.47923536968116476,0.5325145704567292,1.0266244283381016,0.998324607329843,0.4261502956576053,0.0,0.9980104712041885,50,1165,7828,772028,no_split,wide,individual,1,0.44434571266174316
1,1.0,0.4277629134586524,0.3445444753776863,0.36139167808872474,0.3765093275825652,0.39203562659828256,0.408880603547229,0.42848509343455604,0.4518381901486746,0.48264606055657555,0.5348506962898437,1.048495751093969,0.9976963350785341,0.4261502956576053,0.0,0.9980104712041885,50,1165,7828,772028,no_split,wide,individual,1,0.44434571266174316
0,0.0,0.5542877234678295,0.4030022258626837,0.4276715557683238,0.4530756982794713,0.48014533581201957,0.5093317628196704,0.5463261844550319,0.5928134315704174,0.6590855377225644,0.7657049936912466,1.5109848967539028,0.979047619047619,0.5628161482680096,0.0,0.9754787234042553,50,1165,7840,772028,no_split,wide,individual,1,0.44170260429382324
1,1.0,0.5714357861676569,0.4109918750919098,0.43998489675390295,0.467690299802551,0.4962830952929607,0.5283887170673608,0.5652443895955716,0.6155293276616093,0.6802486497731645,0.7875430775420622,1.5171765244042155,0.9718716577540107,0.5628161482680096,0.0,0.9754787234042553,50,1165,7840,772028,no_split,wide,individual,1,0.44170260429382324
0,0.0,0.4670865765499001,0.3740507865285508,0.3956198400464074,0.41458462039969934,0.4326168582847765,0.45122556650537443,0.4724775070916728,0.4964775070916728,0.5293397798864755,0.580022816434584,1.1201746389371203,1.0,0.47469971791115667,0.0,1.0,50,1165,7924,772028,no_split,wide,individual,1,0.44465112686157227
1,1.0,0.4823128592724132,0.3927538417465301,0.4131525638015562,0.4315280752136372,0.4505078892292638,0.46711526515634894,0.48836070760635103,0.511210797692906,0.5415219004339888,0.5909812729199738,1.1443029567098493,1.0,0.47469971791115667,0.0,1.0,50,1165,7924,772028,no_split,wide,individual,1,0.44465112686157227
0,0.0,0.4585688107677351,0.36214022275994034,0.382244835822924,0.39967581179190664,0.417810540363494,0.4373510676042586,0.4598119911078579,0.4856534560197643,0.5229393142152932,0.5812557593193842,1.2511704034511004,0.9997883597883598,0.46696344313409155,0.0,0.9997347480106101,50,1165,7939,772028,no_split,wide,individual,1,0.4456977844238281
1,1.0,0.47540272780026915,0.373623049399188,0.3964038473030631,0.41617231287666406,0.43557019158294624,0.45535541066771945,0.4789200845832982,0.5061150189819067,0.5412416111040497,0.6016991133363444,1.1800321582416577,0.9996808510638298,0.46696344313409155,0.0,0.9997347480106101,50,1165,7939,772028,no_split,wide,individual,1,0.4456977844238281
0,0.0,0.45867511823624824,0.33609941937183807,0.3549444868779325,0.37331081520678955,0.3947197653304323,0.4181631847670937,0.44859684127161653,0.4850386871679033,0.5388899656647667,0.6340904781572894,1.468012131170562,0.9674157303370786,0.46863557788895505,0.0,0.9591184573002755,50,1165,8026,772028,no_split,wide,individual,1,0.4424431324005127
1,1.0,0.47821915528453246,0.3470112393571138,0.37083347025577473,0.39408146530318405,0.41743242933147034,0.44426157815903533,0.47500321303608034,0.5119986055493259,0.5658527780538549,0.6550232439537222,1.4643251463331208,0.9511351351351351,0.46863557788895505,0.0,0.9591184573002755,50,1165,8026,772028,no_split,wide,individual,1,0.4424431324005127
0,0.0,0.4748792374622271,0.3665639053272902,0.38476071117794,0.40284638169999554,0.4218833358585254,0.44312485125226236,0.4678902911759486,0.5001855971856003,0.5478593561554489,0.6277775734909496,1.2940046221271302,0.9867368421052631,0.4811695006201218,0.0,0.9832105263157894,50,1165,808,772028,no_split,wide,individual,1,0.44658541679382324
1,1.0,0.48745976377801653,0.37676129913475265,0.3977274855899263,0.4166715976344583,0.4382592916978148,0.46037472863014567,0.48653973281278035,0.5192298493975959,0.5628470580208195,0.6330160780150726,1.3752760102976758,0.9796842105263158,0.4811695006201218,0.0,0.9832105263157894,50,1165,808,772028,no_split,wide,individual,1,0.44658541679382324
0,0.0,0.45577947401219804,0.3338544060290875,0.35411874753061034,0.373653710196484,0.3941466803349339,0.4182571033871687,0.4490092819461579,0.48642590129101787,0.5365083302322657,0.6248764330015983,1.4533147846143848,0.9544502617801047,0.45797059864139983,0.0,0.9491906005221932,50,1165,8311,772028,no_split,wide,individual,1,0.4534635543823242
1,1.0,0.4601503111631578,0.3371585170195504,0.3591592923188383,0.37929087042486265,0.400699205554436,0.4251393918483956,0.45515468780790497,0.4912981717315474,0.5409486698096029,0.6257155698895224,1.3855943463413343,0.9439583333333333,0.45797059864139983,0.0,0.9491906005221932,50,1165,8311,772028,no_split,wide,individual,1,0.4534635543823242
0,0.0,0.4596696715819826,0.36755629898987247,0.38364113198416305,0.39805980756338444,0.4130590758205217,0.43164813098874577,0.4525690078119143,0.4806656079346193,0.5193406583307942,0.5880453830943023,1.3058972171859151,0.984375,0.46885410941267053,0.0,0.9795238095238096,50,1165,833,772028,no_split,wide,individual,1,0.4459049701690674
1,1.0,0.47833481943144496,0.3753751438763988,0.3930059665427026,0.41108150958108847,0.42935645191878885,0.4515541027003412,0.47585884213852947,0.505819733535651,0.5477812945275939,0.6143855283425534,1.4712643810304338,0.974516129032258,0.46885410941267053,0.0,0.9795238095238096,50,1165,833,772028,no_split,wide,individual,1,0.4459049701690674
0,0.0,0.5751037052160082,0.3698597453475352,0.4020427339353654,0.436983785535988,0.4724676859250566,0.5128398342626397,0.5629831989778604,0.6278174982469555,0.7202250020409234,0.8705785524474559,1.4645535423163503,0.9535869565217391,0.5847428767788755,0.0,0.9501081081081081,50,1165,837,772028,no_split,wide,individual,1,0.44769287109375
1,1.0,0.5942784013356904,0.3850438501681115,0.42474159016595964,0.4613600724468305,0.49867178075167307,0.5387673636963696,0.5875670744565813,0.6534076211865228,0.740822283310645,0.8789207847191574,1.4721454388038553,0.9466666666666667,0.5847428767788755,0.0,0.9501081081081081,50,1165,837,772028,no_split,wide,individual,1,0.44769287109375
0,0.0,0.39387574217296123,0.3133071972306496,0.3277968330204272,0.3409123621432244,0.3543767568879279,0.37020370279883497,0.3887325463979148,0.41376383688742374,0.44777443302563114,0.5060528663852181,1.0206482282878964,0.9935078534031414,0.4031542819910929,0.0,0.9911052631578947,50,1165,8446,772028,no_split,wide,individual,1,0.44997549057006836
1,1.0,0.4125310074157657,0.32397079831154774,0.34147020380058063,0.3583514924107659,0.3730900249802784,0.3917708207522218,0.41299736271011417,0.4371487306939265,0.47177443302563116,0.5275706819012864,1.0517980379599494,0.9886772486772487,0.4031542819910929,0.0,0.9911052631578947,50,1165,8446,772028,no_split,wide,individual,1,0.44997549057006836
0,0.0,0.4367112285352155,0.3379494250146902,0.3542139937043243,0.3701623741081091,0.3876727246542954,0.4069623877796794,0.4313003308428685,0.4592628124461966,0.502218839933897,0.5749825221022411,1.1978894269595755,0.9747089947089947,0.43903961421572885,0.0,0.9716489361702128,50,1165,845,772028,no_split,wide,individual,1,0.44925475120544434
1,1.0,0.4413929024168894,0.34076942149279854,0.35892652534077363,0.37592652534077364,0.3936601174421231,0.4134536113093619,0.43667147807997053,0.4661869692720098,0.5092756451511669,0.5789433299087342,1.4054550254328226,0.9685561497326203,0.43903961421572885,0.0,0.9716489361702128,50,1165,845,772028,no_split,wide,individual,1,0.44925475120544434
0,0.0,0.5008556198752032,0.37660833395640164,0.39697631362886254,0.41871461448995473,0.44093294778568093,0.4649931871647207,0.49383572938720155,0.5302387802499757,0.5850715819566681,0.6703880988502803,1.460408008497959,0.9833507853403142,0.5036405835015465,0.0,0.9832631578947368,50,1165,8521,772028,no_split,wide,individual,1,0.45028114318847656
1,1.0,0.5064550176424545,0.3806516318281223,0.4041789312143755,0.4263724691894628,0.44749383834056355,0.4731805874830483,0.5022238998970643,0.5403518997325946,0.588514537113298,0.6716655869864838,1.4975854725216382,0.9831746031746031,0.5036405835015465,0.0,0.9832631578947368,50,1165,8521,772028,no_split,wide,individual,1,0.45028114318847656
0,0.0,0.5682403879426843,0.41704763538664263,0.44686157119667785,0.47318352286325843,0.49991134362429274,0.5274076828115564,0.5627192648945311,0.6063897812226289,0.6668527068634738,0.7724995777361329,1.514677788252768,0.9940217391304348,0.5705898397893416,0.0,0.9936021505376345,50,1165,8704,772028,no_split,wide,individual,1,0.45249223709106445
1,1.0,0.5728893032988359,0.42124542875503357,0.4499101377763745,0.47658869071814547,0.504175493346839,0.5334748216820814,0.569036702273817,0.6131605460029029,0.6703380705337716,0.7761563660654944,1.5106639276313465,0.9931914893617021,0.5705898397893416,0.0,0.9936021505376345,50,1165,8704,772028,no_split,wide,individual,1,0.45249223709106445
0,0.0,0.46010657047502657,0.35436630976765515,0.38084061217331294,0.4011997392105681,0.42287624044668165,0.445636558887646,0.4693853420796037,0.4955254190396037,0.529862173637234,0.5841417398358444,1.0846874727122893,1.0,0.4637418361093328,0.0,1.0,50,1165,8755,772028,no_split,wide,individual,1,0.45940327644348145
1,1.0,0.467437354765202,0.3691672286409625,0.39217365030067397,0.4116771349275557,0.43137624837189587,0.4511838710927252,0.4736652095085377,0.49918024974432806,0.5321626483397788,0.5874018334988876,1.2126572592291922,1.0,0.4637418361093328,0.0,1.0,50,1165,8755,772028,no_split,wide,individual,1,0.45940327644348145
0,0.0,0.4609429390596305,0.35120977250666535,0.36973809200405455,0.38788448737971737,0.40663548957088325,0.428891616663884,0.45518841506195784,0.4881282692678366,0.5336296383817263,0.6114099984830083,1.300373913645303,0.9802083333333333,0.4645728869762972,0.0,0.9791666666666666,50,1165,8785,772028,no_split,wide,individual,1,0.45345377922058105
1,1.0,0.4682028348929638,0.3552353506554414,0.374893962355087,0.393984969765309,0.41461712200826173,0.43693488793496615,0.463134494386885,0.4959808223785304,0.5441021000506696,0.619748888453198,1.4003465306298897,0.978125,0.4645728869762972,0.0,0.9791666666666666,50,1165,8785,772028,no_split,wide,individual,1,0.45345377922058105
0,0.0,0.42266503674060474,0.31520386542541323,0.3341200374510513,0.35182894974030077,0.3709323840839648,0.3911137941351008,0.41667533274169105,0.45005335393223345,0.49399808044789756,0.5693341837515076,1.2990533539322335,0.9942857142857143,0.4332705831737374,0.0,0.990132625994695,50,1165,8788,772028,no_split,wide,individual,1,0.45188045501708984
1,1.0,0.4439325420878973,0.3276356762111805,0.35002957332581297,0.37130029404602594,0.3925904941351509,0.4164009592588066,0.4439660993911076,0.4753197861738792,0.5218638509956123,0.5972442089280815,1.3112425067984137,0.9859574468085106,0.4332705831737374,0.0,0.990132625994695,50,1165,8788,772028,no_split,wide,individual,1,0.45188045501708984
0,0.0,0.47919458776754986,0.3576807947538302,0.37851595592719456,0.3967685523621919,0.41778086089924354,0.44167147675755886,0.4710446308198309,0.5076259789198875,0.55901149667727,0.6489827539170715,1.3947398324424047,0.9695238095238096,0.48452302354375165,0.0,0.9657446808510638,50,1165,916,772028,no_split,wide,individual,1,0.45213747024536133
1,1.0,0.4899084479378807,0.3640968640952379,0.3861225760793284,0.40667688234964283,0.43050527748475004,0.45647134732939876,0.4864561323986415,0.5255481391084109,0.5736597297593653,0.6602981931833191,1.4395042325663752,0.9619251336898396,0.48452302354375165,0.0,0.9657446808510638,50,1165,916,772028,no_split,wide,individual,1,0.45213747024536133
0,0.0,0.4164034982957241,0.32466601044797677,0.3393500188980313,0.3543822385744393,0.36971171590249613,0.3868303160886783,0.4083753551412511,0.43540483756701515,0.4762025764795963,0.5473245152732911,1.2531720276468046,0.9805263157894737,0.42524895871843443,0.0,0.9749081364829396,50,1165,985,772028,no_split,wide,individual,1,0.4506876468658447
1,1.0,0.4340481078300311,0.334236280170037,0.3528251502458948,0.3698708925727405,0.3871612302649412,0.40856841178329484,0.43120230927823355,0.46101615377268956,0.49722076644095897,0.5663492812730555,1.3831271970474353,0.9693193717277487,0.42524895871843443,0.0,0.9749081364829396,50,1165,985,772028,no_split,wide,individual,1,0.4506876468658447
0,0.0,0.447255786679089,0.3428824628110534,0.3601045692703399,0.3771496331594984,0.39513400452023156,0.4146884024437964,0.4390070438642542,0.46970667020838847,0.514127086035742,0.5913920966435183,1.3718427526183237,0.9928780487804878,0.4664733530475165,0.0,0.9872361809045226,50,1165,275,772028,no_split,narrow,individual,1,0.45240235328674316
1,1.0,0.4868857940087996,0.36535591401149237,0.3899402956313564,0.41143268670780897,0.43505063921941817,0.45993878809310385,0.4873583064126027,0.5221665511325524,0.5687358660467219,0.643740788540059,1.411091775959319,0.9812435233160621,0.4664733530475165,0.0,0.9872361809045226,50,1165,275,772028,no_split,narrow,individual,1,0.45240235328674316
0,0.0,0.46764870923500945,0.3696679862937691,0.3856679862937691,0.40162448660601724,0.4182783191810589,0.4373130949854909,0.46144892540509885,0.49042211833084876,0.5327164594335599,0.6018949226989538,1.2494489254050989,0.991904761904762,0.48000290115420136,0.0,0.9882323232323232,50,1165,808,772028,no_split,narrow,individual,1,0.4508178234100342
1,1.0,0.49395118235328905,0.38340847231790876,0.4043501683030043,0.42514237483514183,0.44527956788731543,0.46682217203073884,0.49241062958474163,0.524891881387178,0.5666595802001236,0.6360151530258089,1.3859385581846857,0.9840860215053764,0.48000290115420136,0.0,0.9882323232323232,50,1165,808,772028,no_split,narrow,individual,1,0.4508178234100342
0,0.0,0.46060058671154486,0.36313150786356757,0.37841548870147873,0.392682394263774,0.4089086229347212,0.4272458807428786,0.4493297621875202,0.4801180823311765,0.5224250229948715,0.6013037298795754,1.4976917772012244,0.9861,0.48143448004487827,0.0,0.9733866666666666,50,1165,833,772028,no_split,narrow,individual,1,0.45399975776672363
1,1.0,0.5052446438544019,0.3822229526003721,0.40548936321588647,0.42733344528171036,0.4504709796620565,0.4742792823507822,0.5040360447566402,0.5385920307653864,0.5878381892930179,0.667547039698206,1.4440798330774354,0.9588571428571429,0.48143448004487827,0.0,0.9733866666666666,50,1165,833,772028,no_split,narrow,individual,1,0.45399975776672363
0,0.0,0.592623956350329,0.35979514331619156,0.39730128899036826,0.4346079612366991,0.4753923962505693,0.5227345627816173,0.5823068077562136,0.654977111915296,0.7660795496838109,0.9401302620577906,1.4527228248139963,0.9442931937172775,0.6067591226085445,0.0,0.9345744680851064,50,1165,837,772028,no_split,narrow,individual,1,0.45380401611328125
1,1.0,0.6213527266913507,0.3895523246296539,0.43090679909100865,0.4703934701830739,0.5161125043646954,0.5631422949059354,0.6185398557630596,0.6889691298068709,0.7874041942543917,0.9511133114980862,1.4603787524768317,0.9245405405405406,0.6067591226085445,0.0,0.9345744680851064,50,1165,837,772028,no_split,narrow,individual,1,0.45380401611328125
0,0.0,0.42682928203474774,0.33707605790263223,0.35197292434844063,0.36572772282937077,0.38037988302133113,0.39735861279588414,0.41932060546025596,0.4463101440699919,0.4856157395211515,0.5546297828189366,1.290640520472994,0.9848958333333333,0.4387974337727157,0.0,0.9734224598930481,50,1165,845,772028,no_split,narrow,individual,1,0.45226430892944336
1,1.0,0.451423176265517,0.3473047217441974,0.3677161324943459,0.38607330446632904,0.40373941861995066,0.4247274187112666,0.45074691169556647,0.4806967499493639,0.5207319255443349,0.5855826989685321,1.3027266584160062,0.9613186813186814,0.4387974337727157,0.0,0.9734224598930481,50,1165,845,772028,no_split,narrow,individual,1,0.45226430892944336
0,0.0,0.4660427719162591,0.3518231635350164,0.3698856456369577,0.38750990932705676,0.4062559245077678,0.42836842490760374,0.4548895294937702,0.49225209926838015,0.5408915892587484,0.6298750115185545,1.4048510899586135,0.9894972067039106,0.48843298225298104,0.0,0.980655737704918,50,1165,916,772028,no_split,narrow,individual,1,0.4529459476470947
1,1.0,0.5098653226287736,0.3792916085140821,0.40519635584146435,0.4298335379062835,0.4533230515906032,0.47881883134747705,0.5087194959384442,0.5457472174101079,0.5965157231083933,0.6775206090553793,1.4427426673264983,0.9721925133689839,0.48843298225298104,0.0,0.980655737704918,50,1165,916,772028,no_split,narrow,individual,1,0.4529459476470947
0,0.0,0.41753842409627945,0.3290478813147554,0.3427881219974362,0.35597063535225004,0.3697322752544311,0.3868872399201816,0.4074362027984031,0.43343352703961757,0.47433130916083616,0.5463660572936412,1.4394491462586207,0.967683615819209,0.43463078457581644,0.0,0.9534417344173441,50,1165,985,772028,no_split,narrow,individual,1,0.45389223098754883
1,1.0,0.45038780439288956,0.3408738713543173,0.36020141066250916,0.37961345398432705,0.40096347862606696,0.4218135327453904,0.44794250883728187,0.48037374532101684,0.5226365894202181,0.6000122768245635,1.4580250719071712,0.9403125,0.43463078457581644,0.0,0.9534417344173441,50,1165,985,772028,no_split,narrow,individual,1,0.45389223098754883
0,0.0,0.4132414442098641,0.3274609270451875,0.3402179144678327,0.3523068711436491,0.3654977569520493,0.38098163796258405,0.3999160976944676,0.4253520469009473,0.4669009484649712,0.5411147960090106,1.3621763539329295,0.9811363636363636,0.439113853300773,0.0,0.9493684210526315,50,1165,1108,772028,no_split,narrow,individual,1,0.45304298400878906
1,1.0,0.4614351474184202,0.34753671537473346,0.37110132412203417,0.3914927816395928,0.41257392814820587,0.4362725981349388,0.4622951457891666,0.4935026098632095,0.5394560394280021,0.6067050669339846,1.1882572350955745,0.9219607843137255,0.439113853300773,0.0,0.9493684210526315,50,1165,1108,772028,no_split,narrow,individual,1,0.45304298400878906
0,0.0,0.44591105218561466,0.33054493450303835,0.34732364165674495,0.364165054401482,0.3822762134353288,0.40462008015433104,0.4317823096491545,0.468410879720606,0.5236470322063085,0.6192720496827187,1.469163537576211,0.9764824120603015,0.4666545450800624,0.0,0.9575921375921376,50,1165,1507,772028,no_split,narrow,individual,1,0.45319342613220215
1,1.0,0.48650048299350024,0.35219065009348843,0.37738149513608954,0.4015931281023536,0.4257766175710273,0.4544897526225148,0.48516440433350877,0.5253712297535056,0.5763104747367851,0.6615485445188045,1.3815449345030384,0.9395192307692307,0.4666545450800624,0.0,0.9575921375921376,50,1165,1507,772028,no_split,narrow,individual,1,0.45319342613220215
0,0.0,0.4654734947710589,0.34990690961743537,0.3708461492583289,0.3903481651291398,0.4113440004857134,0.43329192179600445,0.459920332761449,0.49459338670725056,0.540837834499493,0.620501867320699,1.360008055052018,0.9893548387096774,0.47356990641323643,0.0,0.9870680628272251,50,1165,1538,772028,no_split,narrow,individual,1,0.4606740474700928
1,1.0,0.4812532358287723,0.3640353714527515,0.3859116157968612,0.4070936377824376,0.4276002929045765,0.450740939550725,0.4783190126251553,0.5105950456089796,0.5568814054027401,0.6388925758680938,1.424570488358257,0.9848979591836735,0.47356990641323643,0.0,0.9870680628272251,50,1165,1538,772028,no_split,narrow,individual,1,0.4606740474700928
0,0.0,0.46306063152236,0.3647102181481537,0.38071021814815365,0.3949404556717341,0.4107903653253611,0.4291925076040956,0.4509727593309735,0.4799601844389601,0.5229522207151437,0.6039177282608525,1.3179172311921856,0.9958510638297873,0.49756526005392604,0.0,0.9859562841530055,50,1165,1582,772028,no_split,narrow,individual,1,0.44956159591674805
1,1.0,0.5340083508625464,0.4047055106094352,0.43402880550414374,0.45881556907828064,0.48360090994002536,0.5104732851523015,0.5399709495006646,0.5744211579601466,0.620339375838676,0.6906023904259528,1.4101925076040958,0.9755056179775281,0.49756526005392604,0.0,0.9859562841530055,50,1165,1582,772028,no_split,narrow,individual,1,0.44956159591674805
0,0.0,0.4407046802442372,0.34354910808397376,0.35681491319693365,0.36903945267481536,0.3826225121672341,0.3987492023275867,0.4201800653255827,0.45044608559091326,0.4971644612907799,0.595246568810349,1.448078328845212,0.9831155778894473,0.4765059625958448,0.0,0.948671679197995,50,1165,1583,772028,no_split,narrow,individual,1,0.45003437995910645
1,1.0,0.5121282385356944,0.38006669410233823,0.4090783288452119,0.43462347677919694,0.459065776082966,0.48573727300921227,0.5145891876250805,0.5507994106094076,0.5985748640711532,0.6732368220814495,1.469372544896781,0.9144,0.4765059625958448,0.0,0.948671679197995,50,1165,1583,772028,no_split,narrow,individual,1,0.45003437995910645
0,0.0,0.5555530261900203,0.395463500418882,0.41951522154955406,0.44481501067611484,0.47173586716291555,0.502620530962195,0.5399822291968689,0.589569960155154,0.6626625478292419,0.790121040307909,1.5107093208648867,0.972896174863388,0.5729955845879066,0.0,0.9631318681318681,50,1165,1597,772028,no_split,narrow,individual,1,0.4507923126220703
1,1.0,0.5906308784377032,0.41816817360689745,0.4517437257940332,0.4821670329222344,0.5138804139285992,0.5461137995528285,0.5852179169014152,0.6353869313839456,0.7057210815547417,0.8223785668036243,1.512363624357132,0.9532596685082873,0.5729955845879066,0.0,0.9631318681318681,50,1165,1597,772028,no_split,narrow,individual,1,0.4507923126220703
0,0.0,0.43155236795252017,0.3293427127157155,0.3461340164621188,0.3625911360247652,0.3794149438285236,0.39841494382852355,0.4217697267062154,0.4514865961164789,0.49681884858905656,0.57821003027944,1.3912093216904067,0.9848087431693989,0.44746155877219224,0.0,0.97392,50,1165,1601,772028,no_split,narrow,individual,1,0.44825148582458496
1,1.0,0.4626250062721923,0.3439999266233624,0.3678147525188134,0.3887438718218682,0.41006308007162057,0.4339442225979302,0.4606700410440579,0.4962566507406292,0.5419080973816062,0.6147274769063519,1.3712093216904067,0.9635416666666666,0.44746155877219224,0.0,0.97392,50,1165,1601,772028,no_split,narrow,individual,1,0.44825148582458496
0,0.0,0.48372560817544885,0.3522156555022998,0.3729502221797654,0.39234359002877217,0.41292291983275947,0.43743300455445555,0.467713662361257,0.5062374526787571,0.5678767435154973,0.676673150672571,1.4568793321857563,0.9926732673267327,0.5155608785895871,0.0,0.9825268817204301,50,1165,1614,772028,no_split,narrow,individual,1,0.4472196102142334
1,1.0,0.5533886704934453,0.3928793321857564,0.42587933218575635,0.4564173196886527,0.4851957776133111,0.5174372564490006,0.5543028481568526,0.5973219151916159,0.6603167834749484,0.7618293037050043,1.4304372564490007,0.9704705882352941,0.5155608785895871,0.0,0.9825268817204301,50,1165,1614,772028,no_split,narrow,individual,1,0.4472196102142334
0,0.0,0.4848019085528543,0.35186027851588947,0.3766059181953858,0.3994872977373422,0.421608704038167,0.44835682654267595,0.4792695507181836,0.5173980454560796,0.5739037283259735,0.6709732476397924,1.4501871082335887,0.9984530386740331,0.509935128965765,0.0,0.9968421052631579,50,1165,1638,772028,no_split,narrow,individual,1,0.4444692134857178
1,1.0,0.5327949927584125,0.38661401083949354,0.4201062709801793,0.4466460472320032,0.47336578581334693,0.5008769919593495,0.5337413442135938,0.5755195408634178,0.6278867599841726,0.7178648359204797,1.4028661661038735,0.9953768844221106,0.509935128965765,0.0,0.9968421052631579,50,1165,1638,772028,no_split,narrow,individual,1,0.4444692134857178
0,0.0,0.4066546339176455,0.31505255931138393,0.32977750051398413,0.3437826307624378,0.3590258076122461,0.3767023599578872,0.3969341186008093,0.4247082970263133,0.4666626162206732,0.5349042975017415,1.4177504172103104,0.9838775510204082,0.42586164007860045,0.0,0.9670080862533693,50,1165,1657,772028,no_split,narrow,individual,1,0.44792985916137695
1,1.0,0.44737348697887,0.33263183990142053,0.3542357498334227,0.3749358912428625,0.3964529817546277,0.4188462475110807,0.44612493956690646,0.48009358572763305,0.5279404391970519,0.599092787054951,1.4181737673393513,0.9481142857142857,0.42586164007860045,0.0,0.9670080862533693,50,1165,1657,772028,no_split,narrow,individual,1,0.44792985916137695
0,0.0,0.46427567132762404,0.36801740240934594,0.38460772028725543,0.3990953824377242,0.41531726763291643,0.43366505864855526,0.455121239490884,0.4832168039118426,0.5255976365820871,0.600173359463446,1.3673797147154145,0.9957948717948718,0.48681346021217436,0.0,0.9886802030456853,50,1165,1663,772028,no_split,narrow,individual,1,0.4314701557159424
1,1.0,0.5088982282146232,0.39527608489877486,0.4187043321272601,0.4393729593620002,0.46148851414934355,0.4837773367928831,0.5087722211436969,0.5405591544667798,0.5842372548583762,0.6544788089303959,1.4194888659863487,0.9817085427135679,0.48681346021217436,0.0,0.9886802030456853,50,1165,1663,772028,no_split,narrow,individual,1,0.4314701557159424
0,0.0,0.5136462253647107,0.37009905249643593,0.3936375943160857,0.4159569870632264,0.4396437263463174,0.46838537914121614,0.5015410186302292,0.547830768700848,0.6095550127358762,0.7185516812071769,1.4791177061135055,0.9888397790055249,0.5270697612763129,0.0,0.9833701657458563,50,1165,1761,772028,no_split,narrow,individual,1,0.43774986267089844
1,1.0,0.5404932971879152,0.39224136993173997,0.42040276852004144,0.4465795663294807,0.4747888443644501,0.503829558039294,0.5375717406328012,0.5795507274258596,0.6388013611619758,0.7331187794216852,1.482081449253282,0.9779005524861878,0.5270697612763129,0.0,0.9833701657458563,50,1165,1761,772028,no_split,narrow,individual,1,0.43774986267089844
0,0.0,0.47117683406682487,0.34222806850270276,0.36224728241751486,0.3831356968642677,0.4048742154781387,0.43024728241751486,0.45948606004606557,0.4985079658315601,0.5548312493416884,0.6607450735592602,1.423973370547236,0.9682608695652174,0.4803662982266368,0.0,0.9598378378378378,50,1165,1768,772028,no_split,narrow,individual,1,0.4306051731109619
1,1.0,0.48945695094387015,0.3505794637064556,0.3744419651768851,0.3973981155988647,0.42261526407861605,0.45185219620374306,0.4852305006036464,0.5277345596289251,0.5842837336227533,0.6776462112362438,1.4442512815549065,0.951505376344086,0.4803662982266368,0.0,0.9598378378378378,50,1165,1768,772028,no_split,narrow,individual,1,0.4306051731109619
0,0.0,0.390239783907622,0.29701776001961333,0.3109518577391688,0.3258051119083963,0.34068118961599897,0.3573303023325105,0.37932589589919397,0.40785082005466555,0.45110850594297064,0.5271023796741632,1.2331685959790322,0.9636871508379888,0.4033177452495991,0.0,0.9489839572192513,50,1165,1813,772028,no_split,narrow,individual,1,0.4300253391265869
1,1.0,0.4153226430968499,0.30730699836030284,0.32642528736212456,0.345264845079275,0.3651031118536442,0.3861463396152279,0.41255323985086584,0.4444591000831523,0.4891811248374126,0.563022680087692,1.2586264061810002,0.9354871794871795,0.4033177452495991,0.0,0.9489839572192513,50,1165,1813,772028,no_split,narrow,individual,1,0.4300253391265869
0,0.0,0.4023250301141273,0.3089199812345608,0.32257861365273177,0.3375761576822921,0.3523348342116837,0.36910435100639083,0.3907643434877877,0.4191420645349951,0.4626764468977563,0.5363266026059974,1.431576157682292,0.9873170731707317,0.42422741528679087,0.0,0.9726732673267326,50,1165,1821,772028,no_split,narrow,individual,1,0.4380970001220703
1,1.0,0.4467901738817458,0.3302595245669858,0.3533525786061101,0.3755493085986161,0.39725619662336403,0.4204222576913748,0.44681030777430314,0.4794899457725511,0.5257930202433527,0.5998500584495507,1.2434769865012978,0.9575879396984924,0.42422741528679087,0.0,0.9726732673267326,50,1165,1821,772028,no_split,narrow,individual,1,0.4380970001220703
0,0.0,0.3999630784123241,0.31376691350020247,0.32768465046723794,0.3414903281782194,0.35606675276087707,0.3720776917943475,0.392271740563272,0.42023518914849983,0.45653534987275696,0.5226308599560829,1.1844934146428576,0.9833149171270719,0.4111774327675609,0.0,0.9760106382978724,50,1165,3286,772028,no_split,narrow,individual,1,0.4338095188140869
1,1.0,0.42158665398960127,0.3275287004056322,0.3457325553497024,0.3622738466384203,0.3795691789252467,0.39864902622309917,0.420976617022976,0.4460346155194405,0.48326704360463674,0.5449595540152224,1.0330333901991353,0.9692307692307692,0.4111774327675609,0.0,0.9760106382978724,50,1165,3286,772028,no_split,narrow,individual,1,0.4338095188140869
0,0.0,0.4895920105042109,0.3630755973090658,0.3847725600164743,0.4051194272269925,0.42773164320318763,0.4510284211886202,0.48112245865677217,0.5195327252209878,0.5747036818959045,0.665877965514705,1.4238730107850168,0.9951136363636364,0.5101172490156994,0.0,0.9918681318681318,50,1165,3292,772028,no_split,narrow,individual,1,0.43706202507019043
1,1.0,0.5293323659200716,0.38754331232359995,0.41732750533554924,0.444050991337983,0.4681373918732183,0.4960807037868995,0.5297241403025478,0.5682613590025485,0.6224610410964183,0.7130774551222557,1.4783885161547736,0.9888297872340426,0.5101172490156994,0.0,0.9918681318681318,50,1165,3292,772028,no_split,narrow,individual,1,0.43706202507019043
0,0.0,0.4036718064336275,0.3132502620371686,0.3289153402359701,0.34195066216042697,0.35643255157440684,0.3732502620371686,0.3932147402802979,0.4203504650968266,0.45875256753243665,0.5313959534178692,1.4458240929381792,0.9948663101604278,0.43415124417235934,0.0,0.9834805194805195,50,1165,3487,772028,no_split,narrow,individual,1,0.43776416778564453
1,1.0,0.46293737981449495,0.34396916555704893,0.36924557207102743,0.3923382682427195,0.4148098047221356,0.4396237299981536,0.4660353027161858,0.4990165081824773,0.5430570506242317,0.6109110004165433,1.2623696422080515,0.9727272727272728,0.43415124417235934,0.0,0.9834805194805195,50,1165,3487,772028,no_split,narrow,individual,1,0.43776416778564453
0,0.0,0.41455294298589257,0.34195780779105295,0.35369808092297644,0.3646784319492706,0.37668470965531664,0.3893794995479755,0.4064177949367373,0.4284228853630181,0.46117005981161385,0.5146414997612878,1.1466012943930277,0.9849751243781094,0.4317715092914208,0.0,0.9646700507614213,50,1165,3580,772028,no_split,narrow,individual,1,0.44178199768066406
1,1.0,0.44970379855261855,0.3561081346200897,0.37417662641719446,0.39070091568889276,0.4076947381060615,0.42660693496016855,0.4491186807298038,0.47588456162800585,0.5130962058506272,0.5715838688449857,1.2472240285089602,0.9435233160621762,0.4317715092914208,0.0,0.9646700507614213,50,1165,3580,772028,no_split,narrow,individual,1,0.44178199768066406
0,0.0,0.49584407418278637,0.36977237971169835,0.38899869272496096,0.4076321984434054,0.4287950564043947,0.453308931620061,0.4833410448738242,0.5229134987901917,0.5788411196299817,0.6758655123560378,1.5042866699264277,0.9382795698924731,0.5041257655034066,0.0,0.9207734806629835,50,1165,3625,772028,no_split,narrow,individual,1,0.43971753120422363
1,1.0,0.5128780074672439,0.37673730263173766,0.3994152471755686,0.4226337961516256,0.4481633422305267,0.4755367244924149,0.5087874975068292,0.5480853153874815,0.6037799386092638,0.7005463366904247,1.4399907529075215,0.9022727272727272,0.5041257655034066,0.0,0.9207734806629835,50,1165,3625,772028,no_split,narrow,individual,1,0.43971753120422363
0,0.0,0.5494950690109374,0.4104708992056798,0.4381278709111423,0.46371943167605084,0.48946501105536594,0.5168060114877673,0.550148802539559,0.5884816483750518,0.6414062978011724,0.7332296198864745,1.4530658268070349,0.9989887640449439,0.5627257203309338,0.0,0.9988617886178862,50,1165,3754,772028,no_split,narrow,individual,1,0.4445343017578125
1,1.0,0.5750558561160614,0.4284835208788511,0.4597240748040618,0.48844086502166645,0.5166113481957614,0.5452190470747345,0.5781232408672579,0.6188364075508629,0.670851979835371,0.757437954985911,1.4926438777491864,0.9987434554973822,0.5627257203309338,0.0,0.9988617886178862,50,1165,3754,772028,no_split,narrow,individual,1,0.4445343017578125
0,0.0,0.4193676700051468,0.3311419226294536,0.3480426483024966,0.3623296310481886,0.3778910568689875,0.3943286759788292,0.4150455721699035,0.44247158545463666,0.4778938423564468,0.5410332352656494,1.1674715854546367,0.9986170212765958,0.434423760844084,0.0,0.9969430051813472,50,1165,3910,772028,no_split,narrow,individual,1,0.44490933418273926
1,1.0,0.44871944305479217,0.35439657369484073,0.3740318269329599,0.39206745370123325,0.40974319443005575,0.42850046047552504,0.45089009776286393,0.4763209671784674,0.511814796783371,0.5674911574933268,1.0968753742289694,0.9953535353535353,0.434423760844084,0.0,0.9969430051813472,50,1165,3910,772028,no_split,narrow,individual,1,0.44490933418273926
0,0.0,0.405887014101539,0.3378055373827118,0.3497559595397679,0.3601523024973042,0.3717559595397679,0.3844663344733647,0.40003076163710316,0.4201282212162164,0.44964745199045053,0.500564086401333,1.137755959539768,0.9912707182320442,0.41996958345309465,0.0,0.9847894736842105,50,1165,4222,772028,no_split,narrow,individual,1,0.4351317882537842
1,1.0,0.43277835256179614,0.3518326374720456,0.36782962635100847,0.3821666836135969,0.39712021431813205,0.4133826478497487,0.4325729191375789,0.4551692822940753,0.4853047948083429,0.5388785863447507,1.034499617672321,0.978894472361809,0.41996958345309465,0.0,0.9847894736842105,50,1165,4222,772028,no_split,narrow,individual,1,0.4351317882537842
0,0.0,0.469085770202949,0.33574849865780965,0.35442502133062653,0.3733884064822821,0.3936880595234195,0.4196909889620329,0.4510910246502159,0.493704960935401,0.5588978161536167,0.6733985753485415,1.469154801829789,0.9663636363636363,0.4960962416682316,0.0,0.943727959697733,50,1165,4264,772028,no_split,narrow,individual,1,0.4348912239074707
1,1.0,0.5229709821211257,0.36194187279368945,0.3930411905907525,0.42230393504023817,0.45268522003018624,0.4850911245614,0.5215299865171978,0.5670459430133304,0.6308101555233118,0.7333240151349497,1.4477756545764537,0.9212060301507538,0.4960962416682316,0.0,0.943727959697733,50,1165,4264,772028,no_split,narrow,individual,1,0.4348912239074707
0,0.0,0.43070993561279874,0.34665480071940796,0.36225186190494574,0.3757496629111075,0.3898770085849283,0.40661118814950004,0.42666318303992207,0.4504850640307346,0.48573355308043775,0.5436185745334681,1.3592258967882886,0.9992592592592593,0.448182190903804,0.0,0.9977717391304348,50,1165,5281,772028,no_split,narrow,individual,1,0.4350001811981201
1,1.0,0.4666305498423515,0.36674437869374643,0.3882873346892432,0.40755549496813104,0.426621727580138,0.44761459144174576,0.4707761441766157,0.49724970798267365,0.5307790628130697,0.5886955502919542,1.0977241568485516,0.9962011173184357,0.448182190903804,0.0,0.9977717391304348,50,1165,5281,772028,no_split,narrow,individual,1,0.4350001811981201
0,0.0,0.4577610165946799,0.3573852895017198,0.3752389657982616,0.39206729558240705,0.4096825871741544,0.42915261501247115,0.45266782423626495,0.4796810793275066,0.5206004787419563,0.5969065286506346,1.2348917957082433,0.9991304347826087,0.48498481447952124,0.0,0.9978378378378379,50,1165,5332,772028,no_split,narrow,individual,1,0.4357326030731201
1,1.0,0.5119158833548482,0.3931167301303799,0.41966117408282044,0.4435195475801649,0.46569119783004187,0.4908870028550969,0.5170202314314886,0.5480028062412801,0.5886593709885598,0.6565195519672283,1.4108917957082434,0.9965591397849463,0.48498481447952124,0.0,0.9978378378378379,50,1165,5332,772028,no_split,narrow,individual,1,0.4357326030731201
0,0.0,0.4649827398481082,0.3511261678085722,0.37164410213081345,0.39148494426672764,0.4115202073742861,0.4328105431071934,0.45895052857732543,0.49153194384434595,0.536526977826442,0.6213237974215634,1.4126454363359033,0.9982741116751269,0.4827523985751679,0.0,0.9972820512820513,50,1165,5575,772028,no_split,narrow,individual,1,0.4386594295501709
1,1.0,0.5008903403846537,0.37378065324472454,0.4021949701514341,0.4269127355577126,0.4498761604904979,0.4751737795033147,0.5034769463179195,0.5396573387712186,0.5861944624012965,0.6592501145009371,1.4085338406173784,0.9962694300518135,0.4827523985751679,0.0,0.9972820512820513,50,1165,5575,772028,no_split,narrow,individual,1,0.4386594295501709
0,0.0,0.463902377692195,0.33560274299713594,0.3555996540971935,0.37582694553814133,0.39718748814446914,0.4232718800678792,0.4525232549947477,0.4926097048134629,0.5460799047036449,0.6499766254166668,1.4302528618799775,0.9939896373056994,0.48947781995718387,0.0,0.9865816326530612,50,1165,5731,772028,no_split,narrow,individual,1,0.4386730194091797
1,1.0,0.5142821433599118,0.36565606189551175,0.3946990443064518,0.421779757712953,0.45103513342983287,0.48068499401868403,0.514274925665331,0.5578380773176781,0.614343098893378,0.7050398388516881,1.4219250609315839,0.9793969849246231,0.48947781995718387,0.0,0.9865816326530612,50,1165,5731,772028,no_split,narrow,individual,1,0.4386730194091797
0,0.0,0.4367965847610902,0.35236976577497964,0.366811774226594,0.3794201639200382,0.39397174940692786,0.4094408833224674,0.4273568900440558,0.45181240218826313,0.4878526211836784,0.5560180571786614,1.2880148147070372,0.9951086956521739,0.46753332507621875,0.0,0.9840871934604905,50,1165,5761,772028,no_split,narrow,individual,1,0.43837475776672363
1,1.0,0.49843802572093815,0.3831234168678465,0.407477500060576,0.42933445659941843,0.4517649516116313,0.47533430485127304,0.5024978324045721,0.5342805748967451,0.5737827594094932,0.6429143560350934,1.40534830622344,0.9730054644808743,0.46753332507621875,0.0,0.9840871934604905,50,1165,5761,772028,no_split,narrow,individual,1,0.43837475776672363
0,0.0,0.4474466845388563,0.3215723542575322,0.3388114521160842,0.35723328613803235,0.3794354450046747,0.40676266338226696,0.43879429118578683,0.4809799904035314,0.5361276504465226,0.6319288925055611,1.4160952611435078,0.9296428571428571,0.45387116769797364,0.0,0.9168563685636857,50,1165,5803,772028,no_split,narrow,individual,1,0.4387471675872803
1,1.0,0.4592408849652956,0.34223506688798355,0.36281145211608423,0.3820952611435078,0.40202175450424005,0.4254441338467388,0.4531274772666965,0.48757656847023106,0.5359250937235205,0.6249421104655193,1.418215880378307,0.9061691542288557,0.45387116769797364,0.0,0.9168563685636857,50,1165,5803,772028,no_split,narrow,individual,1,0.4387471675872803
0,0.0,0.50174327404693,0.35995506485690876,0.3789407914496522,0.40034632935939823,0.4217606536608505,0.44797589891056955,0.4808240025938515,0.526557394830929,0.5969228137017201,0.7197938623651181,1.4895523210185306,0.9760199004975124,0.5323747176043367,0.0,0.9503359173126615,50,1165,5815,772028,no_split,narrow,individual,1,0.43933892250061035
1,1.0,0.5654764388679859,0.39252875211264904,0.42640328017872015,0.45930983987310287,0.4925373154787197,0.5269564258629005,0.5670963838809702,0.6146407171301128,0.6785435170886167,0.7860160700747901,1.475640786529606,0.9225806451612903,0.5323747176043367,0.0,0.9503359173126615,50,1165,5815,772028,no_split,narrow,individual,1,0.43933892250061035
0,0.0,0.4249788789600545,0.3454808280980511,0.3593157523420879,0.3724113288122047,0.38553595053483997,0.40058869209336734,0.41857749656684035,0.4414845607740707,0.47377900298466624,0.5327300397536341,1.181164905905695,0.9979775280898876,0.45202974660846396,0.0,0.9926975476839237,50,1165,6055,772028,no_split,narrow,individual,1,0.43831729888916016
1,1.0,0.47750622513447927,0.37254560518391644,0.39592668384505847,0.41612594340183123,0.43692521362830744,0.45748152663496144,0.4807844399222852,0.5090156755646419,0.5452718956132137,0.6077020724075288,1.3089684179201322,0.9877248677248677,0.45202974660846396,0.0,0.9926975476839237,50,1165,6055,772028,no_split,narrow,individual,1,0.43831729888916016
0,0.0,0.4753886152729519,0.345092817855736,0.36511519453332025,0.38464834414415217,0.40659002947626327,0.4306503518551157,0.4597870560245154,0.5010956884255015,0.5623879810464273,0.6671138022882039,1.4455682993327341,0.9740816326530612,0.49457236513355185,0.0,0.959344262295082,50,1165,6109,772028,no_split,narrow,individual,1,0.4392430782318115
1,1.0,0.5166901002669494,0.3669927475947736,0.3949591528930161,0.42156117958779893,0.44892851852623167,0.4780469721558288,0.5131235724273786,0.5562126530489792,0.6199400848291681,0.7145376429995649,1.4696769911556424,0.9423529411764706,0.49457236513355185,0.0,0.959344262295082,50,1165,6109,772028,no_split,narrow,individual,1,0.4392430782318115
0,0.0,0.3971837714461441,0.3275990519215492,0.3385545529761539,0.34852438467103336,0.35914178808428504,0.3712050034241389,0.385534548037337,0.40552761929371667,0.43803420119916314,0.49902009992083507,1.0962050034241388,0.990188679245283,0.4266970821560667,0.0,0.9588009592326139,50,1165,6214,772028,no_split,narrow,individual,1,0.44171762466430664
1,1.0,0.4572181644512062,0.35424680067382774,0.37554485396866655,0.3950029496694968,0.4151460625552614,0.4381353763778205,0.4622014355485329,0.49050621139143175,0.5258944637194753,0.586042858651277,1.164720429985906,0.9263414634146342,0.4266970821560667,0.0,0.9588009592326139,50,1165,6214,772028,no_split,narrow,individual,1,0.44171762466430664
0,0.0,0.47599889164058873,0.35048322291437434,0.37056693008638875,0.3902337290584238,0.41146715164129855,0.436837417733866,0.467454610386833,0.5054671516412985,0.5585664012649155,0.653527011674299,1.4688982499026557,0.9591489361702128,0.4794754741226701,0.0,0.9523607427055703,50,1165,6253,772028,no_split,narrow,individual,1,0.4398181438446045
1,1.0,0.4829336619884442,0.35608212057527466,0.37786236118908656,0.39987405401137943,0.4227737156682838,0.44788542694643607,0.4785259891865526,0.5161493312772247,0.5674362037755384,0.6548305756145282,1.4756278223533745,0.9456084656084656,0.4794754741226701,0.0,0.9523607427055703,50,1165,6253,772028,no_split,narrow,individual,1,0.4398181438446045
0,0.0,0.46778590556653654,0.36016347782070907,0.37799714266611245,0.3957657652363914,0.4125128618331804,0.4332152666203304,0.4577544337333626,0.4928390599312314,0.5393944266795337,0.6225301556015659,1.3029186138687237,0.9902762430939227,0.4867210590015593,0.0,0.986304347826087,50,1165,6262,772028,no_split,narrow,individual,1,0.4392528533935547
1,1.0,0.5050486674065815,0.3791641728429318,0.40289123645967645,0.42637117632089694,0.45124964225457725,0.477960516952753,0.5055100518300876,0.5407657652363914,0.5899351414153206,0.6666291108533178,1.4204306393590074,0.9824598930481283,0.4867210590015593,0.0,0.986304347826087,50,1165,6262,772028,no_split,narrow,individual,1,0.4392528533935547
0,0.0,0.5057189070740479,0.3955745648663509,0.4147117369703888,0.4328643138391457,0.45085793647836153,0.47283782349362713,0.49851132483069116,0.5303358789891368,0.5757409843666352,0.6631021568218849,1.3604384205430071,0.9968983957219252,0.5233694828122484,0.0,0.9935326086956522,50,1165,6361,772028,no_split,narrow,individual,1,0.44144105911254883
1,1.0,0.5416051605086212,0.4188752764731093,0.4451568427575402,0.4687061408748133,0.4912370658532356,0.5154639814795506,0.5430173574282608,0.5775744888908907,0.6227042704535076,0.6959169226149067,1.396582021905996,0.9900552486187846,0.5233694828122484,0.0,0.9935326086956522,50,1165,6361,772028,no_split,narrow,individual,1,0.44144105911254883
0,0.0,0.4303909185859902,0.3241581134587387,0.34188379521269796,0.3593773322416475,0.37794951741467575,0.39737192266223736,0.42212863182240334,0.45318803873787644,0.5001985802484967,0.5830354362749633,1.4262105447899498,0.9969398907103825,0.4472957770846959,0.0,0.994,50,1165,6427,772028,no_split,narrow,individual,1,0.4469327926635742
1,1.0,0.4629992750809557,0.34988379521269797,0.3731704884269964,0.3942470604821692,0.4150832166242,0.43632379747100136,0.4636621807151155,0.4953315057233119,0.5370342271897554,0.6111193883308665,1.392090393442072,0.991269035532995,0.4472957770846959,0.0,0.994,50,1165,6427,772028,no_split,narrow,individual,1,0.4469327926635742
0,0.0,0.47071909593753286,0.37051652215562764,0.3875174008439062,0.40337531231132806,0.42003747562636845,0.4392183523256766,0.4633680046289397,0.4938450703822437,0.5365718336285545,0.6115680987812109,1.4794359408731985,0.9853403141361257,0.48055663700040147,0.0,0.9811609498680739,50,1165,6583,772028,no_split,narrow,individual,1,0.44295382499694824
1,1.0,0.49055116010150746,0.3854461818038653,0.40513157336033195,0.4254389977873518,0.4444624327632049,0.46486879370620804,0.48942261648306123,0.5179464110744699,0.560041604724903,0.6303785052589554,1.395442728409364,0.9769148936170213,0.48055663700040147,0.0,0.9811609498680739,50,1165,6583,772028,no_split,narrow,individual,1,0.44295382499694824
0,0.0,0.44130096346323133,0.35151604181650925,0.3656491785276199,0.3790457997610532,0.39285331245485877,0.40911433272620557,0.4292616576659021,0.4560550774122144,0.4971023155508282,0.5738938258774606,1.2985854061248019,0.9873846153846154,0.46798516859143646,0.0,0.9687179487179487,50,1165,6634,772028,no_split,narrow,individual,1,0.4452989101409912
1,1.0,0.49466937371964154,0.37461895914648075,0.3986146097006429,0.4200767252649242,0.4419739989128043,0.46706126251298863,0.4950837567991851,0.5294639730406547,0.5750519848618273,0.6499472769133262,1.391076725264924,0.9500512820512821,0.46798516859143646,0.0,0.9687179487179487,50,1165,6634,772028,no_split,narrow,individual,1,0.4452989101409912
0,0.0,0.4600714870385424,0.36665332038007303,0.3807890034017178,0.3938904619724199,0.40889046197241985,0.4248397698099574,0.44669365759837953,0.47544937278129296,0.5154566964423328,0.598393138115874,1.4440912731350404,0.9950526315789474,0.496935348091174,0.0,0.9781333333333333,50,1165,6844,772028,no_split,narrow,individual,1,0.4461939334869385
1,1.0,0.5347955297127956,0.4010128175518328,0.4296500109392372,0.455791727713248,0.4822879049879494,0.510775640790868,0.5393263747876068,0.5756301988302943,0.6233060814822382,0.7011456779052969,1.4421743253978205,0.9607567567567568,0.496935348091174,0.0,0.9781333333333333,50,1165,6844,772028,no_split,narrow,individual,1,0.4461939334869385
0,0.0,0.44657041217043225,0.34574894490683283,0.3612262312898609,0.3763639939686993,0.39193316902968406,0.40973804890433885,0.4332260535159638,0.4632776936823901,0.510251458455567,0.5963634192317703,1.3352490553461507,0.9833879781420765,0.47290274849657393,0.0,0.9645776566757494,50,1165,7624,772028,no_split,narrow,individual,1,0.4471597671508789
1,1.0,0.499091974299204,0.37057917014411046,0.39652933214424746,0.42036069138208915,0.44516472033982923,0.4698724780557921,0.5009041009493114,0.5345501588081882,0.5846006112892289,0.6645452997878158,1.347168428717269,0.9458695652173913,0.47290274849657393,0.0,0.9645776566757494,50,1165,7624,772028,no_split,narrow,individual,1,0.4471597671508789
0,0.0,0.41468119493544897,0.33463857944796094,0.3467093689558992,0.35850331767788257,0.37106468471112974,0.38578626374762803,0.4040711331566748,0.4274026912028682,0.46225946203004253,0.5307672796338924,1.4496232255942274,0.9807486631016042,0.43869568984615953,0.0,0.9524804177545692,50,1165,7756,772028,no_split,narrow,individual,1,0.45185422897338867
1,1.0,0.4616074783579089,0.35423321024465837,0.37493113165845326,0.3937878982812479,0.4148199238741096,0.4374359173833484,0.46385659695018716,0.4952879344035378,0.5351469622570428,0.5980780528722341,1.353508221278742,0.9255102040816326,0.43869568984615953,0.0,0.9524804177545692,50,1165,7756,772028,no_split,narrow,individual,1,0.45185422897338867
0,0.0,0.444401161020339,0.3242389902443659,0.3449593478683103,0.3650841947879051,0.38630401030175315,0.41005062262820907,0.43652142807038347,0.4731884287201813,0.5241951300267786,0.6125570689987948,1.4024914646308775,0.9913541666666666,0.4555173469606242,0.0,0.9880748663101604,50,1165,7768,772028,no_split,narrow,individual,1,0.4521605968475342
1,1.0,0.4672443123481778,0.3375203097425869,0.3620398374748156,0.3859024902492381,0.40889472218029116,0.43446411815758246,0.4630487589748099,0.5014914646308775,0.5530991627598143,0.6409726465192784,1.4425407954655352,0.9846153846153847,0.4555173469606242,0.0,0.9880748663101604,50,1165,7768,772028,no_split,narrow,individual,1,0.4521605968475342
0,0.0,0.4141960966050733,0.3075439291730638,0.32378430574090455,0.3388249287102863,0.35612205001504316,0.37640415626666146,0.4008081380384836,0.43293542218105335,0.48395845413826244,0.5719859397440529,1.4493631260332132,0.9793582887700535,0.44016867926276976,0.0,0.9551075268817204,50,1165,7807,772028,no_split,narrow,individual,1,0.44985485076904297
1,1.0,0.46642204659784675,0.331823249643106,0.3575371790815997,0.38295347846546124,0.4077843057409045,0.434942193790517,0.46549791662964185,0.5039117469069877,0.5560396363199902,0.6388672773629024,1.4426018053964549,0.9305945945945946,0.44016867926276976,0.0,0.9551075268817204,50,1165,7807,772028,no_split,narrow,individual,1,0.44985485076904297
0,0.0,0.40066377753121657,0.3212937919013807,0.33401204716175575,0.34605830498629214,0.35921443459840463,0.3732901045902541,0.39101626621069324,0.4156335840631166,0.4499184662604516,0.5146908954340866,1.3302930651992528,0.9886813186813187,0.4224530710078231,0.0,0.9701385041551247,50,1165,7813,772028,no_split,narrow,individual,1,0.44894838333129883
1,1.0,0.4446075481739816,0.34090949735497456,0.36109205820661316,0.38029306519925293,0.39979251739396016,0.4208232217845624,0.44402569324006297,0.47302333648272055,0.5129560507086837,0.5793344805644892,1.3551687403457817,0.9512849162011173,0.4224530710078231,0.0,0.9701385041551247,50,1165,7813,772028,no_split,narrow,individual,1,0.44894838333129883
0,0.0,0.41659356012406457,0.340321160914226,0.35454727006584486,0.3669199968461232,0.37985213688823133,0.39454974262921505,0.4115515011605684,0.4332622640584829,0.4665741883369832,0.5217225189619762,1.0443486674212255,0.9995744680851064,0.44449902673455544,0.0,0.9982178217821782,50,1165,7828,772028,no_split,narrow,individual,1,0.44918155670166016
1,1.0,0.4687871180436863,0.37362890774845464,0.39575556455281924,0.414321160914226,0.43284650995326823,0.45123946830740064,0.47257031307663633,0.49825674991182256,0.5313339387251174,0.5862596157911522,1.0433211609142259,0.997037037037037,0.44449902673455544,0.0,0.9982178217821782,50,1165,7828,772028,no_split,narrow,individual,1,0.44918155670166016
0,0.0,0.5404458888190632,0.38570255303243994,0.4097781487273527,0.43466898501677903,0.4603919730287322,0.49027149933564074,0.5272393379942371,0.5750923516515707,0.6419015708001125,0.7639088336824489,1.5038935737571888,0.9904761904761905,0.564558350982223,0.0,0.9836692506459949,50,1165,7840,772028,no_split,narrow,individual,1,0.45360851287841797
1,1.0,0.5875747921379664,0.42074777731815893,0.45458650872285866,0.4858856684161638,0.5177245314697857,0.5496861656130536,0.5894135895593701,0.6357405482191729,0.6985047735543233,0.8010956436974902,1.50301387449167,0.9771717171717171,0.564558350982223,0.0,0.9836692506459949,50,1165,7840,772028,no_split,narrow,individual,1,0.45360851287841797
0,0.0,0.4806770488560362,0.3910004862615498,0.4097924584739527,0.42596227290213867,0.442264644340045,0.45956001916253586,0.47934007703547776,0.5054601286196955,0.5397929358975944,0.5975595389457569,1.1275176542798453,1.0,0.5017269821893694,0.0,0.9997333333333334,50,1165,7924,772028,no_split,narrow,individual,1,0.4569706916809082
1,1.0,0.5211576898816772,0.42400015110544514,0.44774033177876027,0.4676977077213087,0.4857307928493925,0.5055103720483218,0.5257360103883574,0.5510828777471896,0.5836324310594317,0.6391588251551176,1.1389139626797413,0.9994871794871795,0.5017269821893694,0.0,0.9997333333333334,50,1165,7924,772028,no_split,narrow,individual,1,0.4569706916809082
0,0.0,0.47505083584327246,0.3630553486529236,0.38480191769697997,0.40442042018018315,0.42376076165733007,0.44542485004637744,0.47095365097482556,0.5033247596417766,0.5477461973819898,0.6263027761636959,1.2743117385727805,0.9991578947368421,0.49207558334493806,0.0,0.9978734177215189,50,1165,7939,772028,no_split,narrow,individual,1,0.45221972465515137
1,1.0,0.5078546176147744,0.3891609311213441,0.4144730939993714,0.4375015067514711,0.4587976524342371,0.4828997600932657,0.5088122067068924,0.5413117385727806,0.5858634482970597,0.6598173073420055,1.2287441626756737,0.9966829268292683,0.49207558334493806,0.0,0.9978734177215189,50,1165,7939,772028,no_split,narrow,individual,1,0.45221972465515137
0,0.0,0.4558993798944163,0.36449232639845786,0.37779773638765074,0.392193408634962,0.40776676063572154,0.42484426683141935,0.44535440326436526,0.474549884356164,0.5161692760892883,0.5921437632169222,1.2923288945150824,0.9563636363636364,0.4690705283279037,0.0,0.9366666666666666,50,1165,8026,772028,no_split,narrow,individual,1,0.45160460472106934
1,1.0,0.4805691499761863,0.3754440673559782,0.3947838139416513,0.41270079871881293,0.4311553676232544,0.45251933777850406,0.47819261559885357,0.5108357822733387,0.5522104680735672,0.617431053012985,1.3599028985020654,0.9194708994708994,0.4690705283279037,0.0,0.9366666666666666,50,1165,8026,772028,no_split,narrow,individual,1,0.45160460472106934
0,0.0,0.45737552847362567,0.33211451074399156,0.35083072557350703,0.3691799234636665,0.3886272735902479,0.4134385455263419,0.44443614179511215,0.48571301798266747,0.5428319902039541,0.6447361070002567,1.434300630080319,0.947379679144385,0.47127062040828244,0.0,0.9294246575342465,50,1165,8311,772028,no_split,narrow,individual,1,0.45380091667175293
1,1.0,0.48586827317109604,0.3475270499972598,0.37151916329728935,0.39611894444166373,0.42066014796809265,0.4489467538105836,0.48008565580725804,0.5216565121117699,0.5756913548041174,0.6742914459411748,1.4401196220010914,0.910561797752809,0.47127062040828244,0.0,0.9294246575342465,50,1165,8311,772028,no_split,narrow,individual,1,0.45380091667175293
0,0.0,0.39563379352911465,0.3074637035926263,0.3212867725428504,0.33425736519921884,0.3488391788799059,0.3644932193994923,0.3840066282450994,0.41081893931884256,0.4475371010831297,0.5231302434242703,1.4194833477501847,0.9886010362694301,0.4239392172341289,0.0,0.9640650406504065,50,1165,8446,772028,no_split,narrow,individual,1,0.4487607479095459
1,1.0,0.45497868754701387,0.3315203557024579,0.3564778135193695,0.37871130986196505,0.40228058253458693,0.4273681636864404,0.45595919341162505,0.49041371636372966,0.5374916517956918,0.6122931033738997,1.1394906067264914,0.9371590909090909,0.4239392172341289,0.0,0.9640650406504065,50,1165,8446,772028,no_split,narrow,individual,1,0.4487607479095459
0,0.0,0.48964863358545435,0.387220137652909,0.40428161925860284,0.4210311235219983,0.4379973568002339,0.45749886948649227,0.4799604092788763,0.5101790230972363,0.5534588190022798,0.6339828789685734,1.3901650679883129,0.9914572864321608,0.5044447299112391,0.0,0.9858181818181818,50,1165,8521,772028,no_split,narrow,individual,1,0.44307804107666016
1,1.0,0.5202749620017292,0.40715950555288777,0.4291094436340616,0.4509310840786108,0.47246535422544444,0.49440944544504095,0.519231707143697,0.551370537918203,0.5951858529118307,0.668767482530097,1.4470215378827234,0.9797849462365591,0.5044447299112391,0.0,0.9858181818181818,50,1165,8521,772028,no_split,narrow,individual,1,0.44307804107666016
0,0.0,0.5582795074487051,0.4121347968883898,0.43733247406106135,0.46216468851742276,0.4869976449120612,0.5161860879531156,0.5523905678696159,0.594380622264486,0.6580288343875393,0.7621403954251529,1.507039144809041,0.9950819672131147,0.5708692962285132,0.0,0.9937535816618911,50,1165,8704,772028,no_split,narrow,individual,1,0.44805049896240234
1,1.0,0.5847484007267353,0.4281808573702774,0.46018004096579757,0.48814891604431837,0.5181784904929333,0.5489956543186163,0.5835411948772182,0.6269087825033213,0.6909562511511437,0.7903406983281164,1.51632852686453,0.9922891566265061,0.5708692962285132,0.0,0.9937535816618911,50,1165,8704,772028,no_split,narrow,individual,1,0.44805049896240234
0,0.0,0.45118156269841847,0.34046629099665615,0.3629091092734112,0.38205365005810554,0.40225077851622765,0.4239109473058186,0.4497926145430753,0.4793978296643158,0.52133596372882,0.5968167808067323,1.3386919543936322,0.9998067632850242,0.4733036355108096,0.0,0.9994845360824742,50,1165,8755,772028,no_split,narrow,individual,1,0.45374488830566406
1,1.0,0.49860346463879274,0.3743222871932824,0.40191148663361287,0.4267951788259239,0.4510449655762693,0.4773915993168259,0.504340677436234,0.5376098403349769,0.5809080527265671,0.6511407750847522,1.2353796545955478,0.9991160220994475,0.4733036355108096,0.0,0.9994845360824742,50,1165,8755,772028,no_split,narrow,individual,1,0.45374488830566406
0,0.0,0.46145780540313286,0.35466163500064035,0.3711677142410995,0.3872961046287987,0.4043524795815093,0.4244390588133162,0.4495804812548544,0.4831601449855272,0.5288222229643269,0.6193744190783139,1.4874716540973492,0.9911538461538462,0.48517242078774825,0.0,0.9817,50,1165,8785,772028,no_split,narrow,individual,1,0.4363875389099121
1,1.0,0.5108632541210816,0.38125202853894125,0.4081350601351454,0.43223193321310327,0.4559952546496269,0.4819604869556043,0.5104624713375888,0.5463704358164644,0.5964774912026417,0.678843260299722,1.4097620627016725,0.9714583333333333,0.48517242078774825,0.0,0.9817,50,1165,8785,772028,no_split,narrow,individual,1,0.4363875389099121
0,0.0,0.40834918592999025,0.3190102448099973,0.33228418390272796,0.3451857425941333,0.3589952674647506,0.3750314929031654,0.3949490436800105,0.4218747918827557,0.4638747287106521,0.5406876918778901,1.3366638839702327,0.9779787234042553,0.4365627884569278,0.0,0.9396401028277634,50,1165,8788,772028,no_split,narrow,individual,1,0.43817901611328125
1,1.0,0.46295163062142664,0.33919210423522345,0.36441188469525876,0.3862082827304183,0.40990111312209365,0.43595674764413384,0.4643499753441175,0.5001857425941333,0.5437308056444252,0.6162161766943972,1.3681812237797852,0.9037810945273632,0.4365627884569278,0.0,0.9396401028277634,50,1165,8788,772028,no_split,narrow,individual,1,0.43817901611328125
0,0.0,0.43268653997850093,0.37436789171155316,0.3835266123923478,0.3920380529544498,0.4009914925663427,0.41249446321490757,0.4250463205064158,0.44163559070718267,0.4680082392928895,0.517914329164951,1.0726328034062327,0.993,0.45545241429544087,0.0,0.9763934426229508,50,1165,161753,772028,no_split,narrow,individual,1,0.4402306079864502
1,1.0,0.4774839055698988,0.3932188714017006,0.41070310220613926,0.4274944632149076,0.44363559070718267,0.46063559070718263,0.47901078408491043,0.5027799114320172,0.5334944632149076,0.5843916389682996,1.0280187619998624,0.9603225806451613,0.45545241429544087,0.0,0.9763934426229508,50,1165,161753,772028,no_split,narrow,individual,1,0.4402306079864502
0,0.0,0.45194986675302073,0.3667824921762722,0.3825701558293251,0.39716912952186795,0.41224347709043374,0.4273360476780006,0.4472421347229853,0.4719678429418257,0.5068198554592861,0.5676040114740584,1.0389693085913412,0.9989690721649485,0.4723018863845188,0.0,0.9963829787234042,50,1165,337788,772028,no_split,narrow,individual,1,0.44118356704711914
1,1.0,0.49399579742029154,0.38996210404486975,0.41195609986896337,0.4316463653635108,0.45128756332124476,0.4734703761112612,0.4969672557819761,0.5255114568676542,0.5628785930983788,0.6261972229607573,1.2389320831653376,0.9936263736263736,0.4723018863845188,0.0,0.9963829787234042,50,1165,337788,772028,no_split,narrow,individual,1,0.44118356704711914
