,congruency,mean_rt,qu10_rt,qu20_rt,qu30_rt,qu40_rt,qu50_rt,qu60_rt,qu70_rt,qu80_rt,qu90_rt,qu100_rt,mean_acc,mean_rt_overall,nonconvergent_trials,accuracy_overall,n_posterior_draws,condition,id,slurm_id,split,spacing,estimation_level,number_parts,time_post_sampling_sec
0,0.0,0.42365511381705406,0.3351172747437515,0.35273467310584844,0.36816026865332635,0.3848205678007489,0.40294626712005444,0.4237453450875324,0.4494680638654096,0.4831149504753527,0.5414072927202791,1.1050401596368704,0.9821052631578947,0.4305826465377447,0.0,0.976984126984127,50,1161,1108,772029,no_split,wide,individual,1,0.4677705764770508
1,1.0,0.4375838764150384,0.34242246969734885,0.36449331236408195,0.38248010536166127,0.4003076673385202,0.42053111143044314,0.4430800520228948,0.4681491067863931,0.5003171489926785,0.5536085087385489,1.093023576665635,0.9718085106382979,0.4305826465377447,0.0,0.976984126984127,50,1161,1108,772029,no_split,wide,individual,1,0.4677705764770508
0,0.0,0.44883511931141384,0.34167932590577266,0.365622780734406,0.38630231451894786,0.40647441154317143,0.4272030758324665,0.45202332811598417,0.4828666425528227,0.5204157192995613,0.5816598990606766,1.1296543821181078,0.988042328042328,0.4552518433437168,0.0,0.9872105263157894,50,1161,1507,772029,no_split,wide,individual,1,0.4568185806274414
1,1.0,0.4616013765484565,0.34893957709069273,0.37664861563248253,0.3996100161402913,0.421249958941667,0.4435059879424559,0.46866046618987167,0.49894168784639914,0.5346771524355526,0.5935016660164186,1.2116543821181078,0.9863874345549738,0.4552518433437168,0.0,0.9872105263157894,50,1161,1507,772029,no_split,wide,individual,1,0.4568185806274414
0,0.0,0.45892624348162425,0.35766370441822076,0.378834506831169,0.3984773493157308,0.4184856135403243,0.4388707972752749,0.4624429835387238,0.49055890648090517,0.5272960440719506,0.5849642416850224,1.1484902516089555,0.9934736842105263,0.46637544447623663,0.0,0.9891863517060367,50,1161,1538,772029,no_split,wide,individual,1,0.44995975494384766
1,1.0,0.47378564441852145,0.3670190327350856,0.3932232954632504,0.4145589064809052,0.43697975819975476,0.45863873754118134,0.4821127235723337,0.5086585781190943,0.5451143350511453,0.5989912964836752,1.0143107466597934,0.9849214659685864,0.46637544447623663,0.0,0.9891863517060367,50,1161,1538,772029,no_split,wide,individual,1,0.44995975494384766
0,0.0,0.4705929655027267,0.3692159953091698,0.3928114783989027,0.4132353350658178,0.4328060802713272,0.45364489903947314,0.47561800953482264,0.5027217630303008,0.536446983255475,0.5941748330846256,1.1224382179225378,0.9928260869565217,0.4756840941748771,0.0,0.9914594594594595,50,1161,1582,772029,no_split,wide,individual,1,0.4519050121307373
1,1.0,0.4807204795279722,0.3761518531077152,0.4006436196167142,0.42291565532227343,0.4430282341343806,0.4645301360323391,0.4878397888114318,0.5152232787657837,0.5507904648345692,0.6050511552490982,1.0174891856511934,0.9901075268817204,0.4756840941748771,0.0,0.9914594594594595,50,1161,1582,772029,no_split,wide,individual,1,0.4519050121307373
0,0.0,0.4431847538153509,0.3410842657956044,0.3628471169623961,0.38223415192557786,0.40125521407607817,0.4214066589406811,0.4456132683180281,0.47364613324418553,0.512204730884582,0.5729588343538659,1.0840106734094435,0.9916230366492147,0.45476038160915294,0.0,0.9858485639686684,50,1161,1583,772029,no_split,wide,individual,1,0.45058417320251465
1,1.0,0.46627571967486225,0.35126448057959436,0.38029734775327884,0.40385169649133296,0.42715472012775185,0.4500797039925066,0.4749616214531703,0.5030595238305939,0.5406249860606236,0.6006098080224785,1.137240068887336,0.9801041666666667,0.45476038160915294,0.0,0.9858485639686684,50,1161,1583,772029,no_split,wide,individual,1,0.45058417320251465
0,0.0,0.5508208205512413,0.3528836796505761,0.4024709227642734,0.4442996469704963,0.4839353910604907,0.5224694515196301,0.5673038573714627,0.6156222293070077,0.6776145436145689,0.7829154867751115,1.4489398146857122,0.9540112994350283,0.5560608410392278,0.0,0.9719230769230769,50,1161,1597,772029,no_split,wide,individual,1,0.45281052589416504
1,1.0,0.5610206465278568,0.36213074027797765,0.41680119104488267,0.4586847371360397,0.4963131894479553,0.5351225041856071,0.5783239874382584,0.626349751753213,0.6866916339918616,0.7824891992267643,1.4773101729729123,0.9888770053475936,0.5560608410392278,0.0,0.9719230769230769,50,1161,1597,772029,no_split,wide,individual,1,0.45281052589416504
0,0.0,0.4118249899002475,0.32646197326775694,0.3476656133594728,0.36591669402585275,0.3826190139272915,0.4002128863739919,0.41871517981476575,0.44126426003044983,0.47016950026342336,0.510764430031168,0.7936670223710859,0.998,0.42108155093343735,0.0,0.9964116094986807,50,1161,1601,772029,no_split,wide,individual,1,0.4526703357696533
1,1.0,0.4303870884800303,0.3360222799776407,0.3611685369024072,0.3827675122726864,0.40072842217211496,0.4192987259981437,0.44086974656147176,0.4640423753622261,0.4935226298054165,0.5369691129285831,0.8586336926562917,0.9948148148148148,0.42108155093343735,0.0,0.9964116094986807,50,1161,1601,772029,no_split,wide,individual,1,0.4526703357696533
0,0.0,0.4865885197661644,0.3453907122504939,0.37479036338704375,0.4003869855872332,0.42753881202205557,0.4552118844807087,0.48878587573004584,0.5266845383612715,0.581405777288679,0.6655446611315136,1.394195554551461,0.9823157894736843,0.490570046081954,0.0,0.9783157894736842,50,1161,1614,772029,no_split,wide,individual,1,0.45115232467651367
1,1.0,0.4945515723977434,0.3514356635979836,0.3841088299208211,0.4121088299208211,0.4394568754855875,0.46839908379263595,0.49875479963693453,0.5374581930763062,0.5898229034026261,0.667694834600498,1.3687903633870437,0.9743157894736842,0.490570046081954,0.0,0.9783157894736842,50,1161,1614,772029,no_split,wide,individual,1,0.45115232467651367
0,0.0,0.4333107541909285,0.36940381903858205,0.38485153218163026,0.3985935024571541,0.41170691417339444,0.4252368042241834,0.4390291698641786,0.4563961537299021,0.4767562618501147,0.5073220313112174,1.023744194246588,0.9990526315789474,0.441165782509757,0.0,0.9978477690288714,50,1161,161753,772029,no_split,wide,individual,1,0.4524681568145752
1,1.0,0.4489796850258692,0.37784542685012923,0.397281284520128,0.41379527162117,0.42753359931625645,0.4420377731974261,0.4572975832365638,0.47489937979332036,0.4960108237002288,0.52788059331665,0.815744194246588,0.9966492146596858,0.441165782509757,0.0,0.9978477690288714,50,1161,161753,772029,no_split,wide,individual,1,0.4524681568145752
0,0.0,0.47394521476102075,0.36028534010526975,0.3853592708544646,0.408831643866511,0.43160170529224356,0.4543518570386229,0.4817432572286072,0.5117711767742095,0.5504615748279046,0.6140360260651303,1.223005788047547,0.9935106382978723,0.47752080983203626,0.0,0.9910817941952507,50,1161,1638,772029,no_split,wide,individual,1,0.45093750953674316
1,1.0,0.48104024372392595,0.36568308593579235,0.3939766971839123,0.4172769916361509,0.44107820628991556,0.466064103891427,0.4898052810641988,0.5191817649442502,0.5557339507134066,0.6153580468081487,1.142883811154447,0.9886910994764397,0.47752080983203626,0.0,0.9910817941952507,50,1161,1638,772029,no_split,wide,individual,1,0.45093750953674316
0,0.0,0.4014529877620882,0.32213618968802754,0.3385685503266916,0.35400573072429015,0.36930058978217767,0.3853575401405059,0.4027702893221667,0.4242964609453274,0.45357703592986864,0.5017795946173073,1.028878484890478,0.9882105263157894,0.40973258198511275,0.0,0.9835883905013193,50,1161,1657,772029,no_split,wide,individual,1,0.47109079360961914
1,1.0,0.4180559835849788,0.32773301791884646,0.3485685503266916,0.36752052502463417,0.38476796299838156,0.4031434055816842,0.4233578333227246,0.44709550920984964,0.4770955092098496,0.5262660677785039,1.0257795946173074,0.9789417989417989,0.40973258198511275,0.0,0.9835883905013193,50,1161,1657,772029,no_split,wide,individual,1,0.47109079360961914
0,0.0,0.47217774094480786,0.379195218026669,0.39914476861891574,0.4168039649176796,0.43470660101871555,0.45368734407758804,0.4737815632555769,0.4988479207994648,0.5335499652449768,0.5898781226510939,1.1915450883571903,0.9929787234042553,0.48123229289797687,0.0,0.9886243386243386,50,1161,1663,772029,no_split,wide,individual,1,0.46906065940856934
1,1.0,0.4901915337779545,0.38853857215269355,0.4144721229603512,0.4343180537156417,0.45454430760310754,0.47546594862803293,0.4973922237248234,0.5248728477929135,0.5571952180266689,0.608289884228162,1.054063441586672,0.9843157894736843,0.48123229289797687,0.0,0.9886243386243386,50,1161,1663,772029,no_split,wide,individual,1,0.46906065940856934
0,0.0,0.5144450948063121,0.3736375116479708,0.4046504421015926,0.4331788084542579,0.4623127186593904,0.4905250576730238,0.5229432161563005,0.5606118199547204,0.6106942908164121,0.6855351847300541,1.3806289603105681,0.9947311827956989,0.5207091078940344,0.0,0.9932975871313673,50,1161,1761,772029,no_split,wide,individual,1,0.46851634979248047
1,1.0,0.5269396235855656,0.38030189782136026,0.4166851445723396,0.4485226227775686,0.4770724804260049,0.5070311384865982,0.5370411462798546,0.574438097628127,0.6221424103383081,0.6974415835176712,1.4412410422050497,0.9918716577540106,0.5207091078940344,0.0,0.9932975871313673,50,1161,1761,772029,no_split,wide,individual,1,0.46851634979248047
0,0.0,0.4453576170885156,0.3157913301461658,0.34149990309488415,0.36492739525899465,0.3879726612414865,0.41336685069835677,0.4444498925288359,0.48019058415061583,0.5297483061284741,0.6145264266965981,1.3077429669898266,0.9871204188481676,0.45925431865919625,0.0,0.9780104712041885,50,1161,1768,772029,no_split,wide,individual,1,0.47191834449768066
1,1.0,0.4731510202298769,0.3323217721553434,0.36726494606957644,0.39634354218294054,0.42367644956135564,0.45198156320883565,0.48338262630994644,0.518560582976747,0.5639475918939835,0.6368855990795161,1.3007696626830647,0.9689005235602094,0.45925431865919625,0.0,0.9780104712041885,50,1161,1768,772029,no_split,wide,individual,1,0.47191834449768066
0,0.0,0.3803156989989227,0.29553098393742516,0.3130928371613628,0.33030794391277607,0.34592625351491857,0.3620928371613628,0.38214310931163104,0.4054015695776802,0.4369158658525338,0.4871781852795729,1.0953008068537724,0.9825531914893617,0.3849186245308376,0.0,0.9784574468085107,50,1161,1813,772029,no_split,wide,individual,1,0.46935415267944336
1,1.0,0.38952155006275246,0.2988940007729419,0.3181456967708554,0.3362773521960276,0.35464636007580863,0.372947755342903,0.39480738378099045,0.418140141485896,0.45061615402687094,0.49948580160895,1.1071609162660412,0.9743617021276596,0.3849186245308376,0.0,0.9784574468085107,50,1161,1813,772029,no_split,wide,individual,1,0.46935415267944336
0,0.0,0.39429871061556065,0.3041364202166093,0.3259550701449509,0.34443329921707505,0.3620441819188471,0.37978876243591697,0.39943612353364805,0.4231215793863906,0.4537392545203182,0.5029209993793472,1.1860072894384925,0.9718947368421053,0.39702388978395403,0.0,0.980262467191601,50,1161,1821,772029,no_split,wide,individual,1,0.47058987617492676
1,1.0,0.39973480099858627,0.30743331418074815,0.3295084415530799,0.3490836309971925,0.3670062226767485,0.38673142191517706,0.4075726828200994,0.4300990019659924,0.4614330982610911,0.5081064945687915,0.9612037675190372,0.988586387434555,0.39702388978395403,0.0,0.980262467191601,50,1161,1821,772029,no_split,wide,individual,1,0.47058987617492676
0,0.0,0.45039636519009163,0.3432245962193519,0.3688297828251216,0.3918333827443566,0.41297771721911264,0.4352680492178951,0.45797410519512005,0.486615438317944,0.5238991331146623,0.5764644731906582,1.0968940113746364,0.9946596858638743,0.4512181970938457,0.0,0.9948404255319149,50,1161,275,772029,no_split,wide,individual,1,0.47150111198425293
1,1.0,0.45206668300528907,0.34479563605107766,0.37000195659726764,0.39210819413307946,0.4141981301925538,0.4363280042998984,0.46056992395022045,0.48775048737553434,0.5217144206233975,0.5783114492024345,1.001355133666164,0.9950270270270271,0.4512181970938457,0.0,0.9948404255319149,50,1161,275,772029,no_split,wide,individual,1,0.47150111198425293
0,0.0,0.3789642405135908,0.29702705788981915,0.3130983735971726,0.32870134033139403,0.344018544701308,0.36001854470130795,0.3789369161867136,0.4005768240505974,0.4323002423241354,0.48570796012966494,0.9197017781792408,0.9913829787234043,0.39338038335460895,0.0,0.983289124668435,50,1161,3286,772029,no_split,wide,individual,1,0.4712820053100586
1,1.0,0.4077202503075793,0.3103729630608757,0.3337511631999648,0.3542901893655096,0.37331470911434605,0.3940000366137403,0.41528013640688377,0.44076359768348233,0.4719670424057815,0.5213250532974594,1.099196708329908,0.9752380952380952,0.39338038335460895,0.0,0.983289124668435,50,1161,3286,772029,no_split,wide,individual,1,0.4712820053100586
0,0.0,0.4571141426619147,0.34900397879054273,0.3746998207640171,0.3957095291612002,0.4171709117832792,0.4378498534860056,0.46100652357176053,0.4890219672090544,0.5286019858205514,0.589031769950547,1.242732161300316,0.9958730158730159,0.4666106148597062,0.0,0.993245382585752,50,1161,3292,772029,no_split,wide,individual,1,0.4758188724517822
1,1.0,0.4760571056248777,0.3642290255937487,0.39344132122531295,0.41712097408012977,0.43900339097939056,0.46220390929984,0.4868261908399004,0.5156607756207762,0.5486122028408438,0.6040075075484225,1.1060018904478697,0.9906315789473684,0.4666106148597062,0.0,0.993245382585752,50,1161,3292,772029,no_split,wide,individual,1,0.4758188724517822
0,0.0,0.45591164368066356,0.3628004868029621,0.3852563066580187,0.40463487788552643,0.423523705179327,0.44250292943576197,0.4625449151096526,0.4865980041566664,0.5182474119478893,0.5652572702756751,1.15188320439966,0.9970526315789474,0.45954341602491,0.0,0.996010498687664,50,1161,337788,772029,no_split,wide,individual,1,0.4514737129211426
1,1.0,0.46315617385426516,0.36685509396334365,0.3912563066580187,0.41254491510965263,0.4316248653546632,0.4525949461291917,0.4734845853453613,0.497139763842913,0.526725842491995,0.5715774415587698,1.1384413551062582,0.9949738219895288,0.45954341602491,0.0,0.996010498687664,50,1161,337788,772029,no_split,wide,individual,1,0.4514737129211426
0,0.0,0.41010135926923014,0.3214517170093236,0.3406960556266493,0.35724781523754384,0.373103546526999,0.3910211022681531,0.4111668622612068,0.43436360292345266,0.4679741186802813,0.5218714542814468,1.192871454281447,0.991764705882353,0.42350421563171653,0.0,0.9858064516129033,50,1161,3487,772029,no_split,wide,individual,1,0.44859886169433594
1,1.0,0.4370519677386622,0.33318782229463334,0.3595084576772949,0.38146094709819467,0.4014182014294066,0.42239390283657474,0.4453307002013406,0.47207087543086945,0.5040571115730154,0.5547221073419446,1.1279701544506282,0.9797837837837838,0.42350421563171653,0.0,0.9858064516129033,50,1161,3487,772029,no_split,wide,individual,1,0.44859886169433594
0,0.0,0.40681067906804663,0.32898614309252094,0.34681399301977955,0.3622298074870404,0.3777928006862937,0.39434689179146254,0.41274728477872846,0.4339068773794981,0.4603326158120208,0.5011741909976498,0.938511826549686,0.9970680628272252,0.41529083142683776,0.0,0.9958730158730159,50,1161,3580,772029,no_split,wide,individual,1,0.45050764083862305
1,1.0,0.42395237741897196,0.3392683338923954,0.36180815151911977,0.38076977443705445,0.39752345232359276,0.41434689179146256,0.4327787293252805,0.45309681597538937,0.4792966690313431,0.5217937606437696,0.8649068773794981,0.9946524064171123,0.41529083142683776,0.0,0.9958730158730159,50,1161,3580,772029,no_split,wide,individual,1,0.45050764083862305
0,0.0,0.47329043905887735,0.3455525337810419,0.371002921886935,0.3942110499872271,0.4181677942186292,0.4449052117302167,0.4735339549504614,0.510164104674982,0.5582957492163624,0.6394728975914418,1.4623411273643938,0.9885714285714285,0.48878837361051347,0.0,0.9799447513812155,50,1161,3625,772029,no_split,wide,individual,1,0.4446849822998047
1,1.0,0.5044585074349457,0.3621126962104843,0.3950333962008909,0.42447132686379707,0.45277571458629545,0.48242241767675065,0.5138968054445346,0.5494648265541434,0.5992632586527116,0.6732198804089401,1.3915412202960495,0.9712222222222222,0.48878837361051347,0.0,0.9799447513812155,50,1161,3625,772029,no_split,wide,individual,1,0.4446849822998047
0,0.0,0.5512067584048443,0.42643666201739233,0.4576138730594283,0.4835695844367485,0.5096263339323126,0.5359299932264068,0.5638352772907296,0.5948627781866742,0.6338982657736768,0.6934479628013006,1.271271331333319,0.9967539267015707,0.5550021747107905,0.0,0.9958005249343832,50,1161,3754,772029,no_split,wide,individual,1,0.4563148021697998
1,1.0,0.558817566892031,0.4358510479915471,0.4689529305593945,0.495536323768541,0.5205795864489873,0.5462897595722255,0.5728143909213441,0.6031540916287705,0.641384314175293,0.6964991061711759,1.1495053865334832,0.9948421052631579,0.5550021747107905,0.0,0.9958005249343832,50,1161,3754,772029,no_split,wide,individual,1,0.4563148021697998
0,0.0,0.420233770929028,0.3357061913090274,0.35350741069904046,0.3692041191514462,0.3863318010048264,0.4027562822500229,0.4213633109949026,0.44636331099490256,0.4773079419282295,0.5252345066354057,1.0604415769972166,0.984021164021164,0.4246354763359049,0.0,0.9839050131926121,50,1161,3910,772029,no_split,wide,individual,1,0.45006585121154785
1,1.0,0.42901401487221935,0.3386612450043861,0.35830814856979465,0.3776497226625514,0.39432591663583083,0.4132429091959547,0.4333936044538812,0.4573021684102278,0.48906468840715844,0.5386924043645159,0.9966651746485786,0.9837894736842105,0.4246354763359049,0.0,0.9839050131926121,50,1161,3910,772029,no_split,wide,individual,1,0.45006585121154785
0,0.0,0.4128724307512218,0.3340097566114576,0.35126662367232897,0.36650446785681706,0.38223726736988894,0.3976585811669804,0.4151654922369815,0.4360930724066231,0.4650134948366626,0.5107602069817251,1.042957218122002,0.9913684210526316,0.417571383674427,0.0,0.9877044854881266,50,1161,4222,772029,no_split,wide,individual,1,0.4521651268005371
1,1.0,0.4222951987824109,0.340154041377642,0.35921575687067264,0.3760097566114576,0.3929318340790726,0.4092516077026998,0.4278941803515106,0.4492219496767144,0.47667511765694204,0.5195848519197528,0.9437922775859761,0.984021164021164,0.417571383674427,0.0,0.9877044854881266,50,1161,4222,772029,no_split,wide,individual,1,0.4521651268005371
0,0.0,0.4584622511396766,0.3357898170960734,0.35830118468975314,0.37973487171529174,0.40169919612078314,0.42578338463962584,0.4555134954775839,0.4916837106735116,0.5413228709693014,0.62349869960379,1.36630124294101,0.9754497354497355,0.47036415590158137,0.0,0.9628571428571429,50,1161,4264,772029,no_split,wide,individual,1,0.44844698905944824
1,1.0,0.4822660606634862,0.3446387471563117,0.37440093402293323,0.3999854721465198,0.4274638273549038,0.45544908253919386,0.4864579696073695,0.5240811997696161,0.570423360548856,0.6524225822821365,1.4027898271150063,0.9502645502645503,0.47036415590158137,0.0,0.9628571428571429,50,1161,4264,772029,no_split,wide,individual,1,0.44844698905944824
