,congruency,mean_rt,qu10_rt,qu20_rt,qu30_rt,qu40_rt,qu50_rt,qu60_rt,qu70_rt,qu80_rt,qu90_rt,qu100_rt,mean_acc,mean_rt_overall,nonconvergent_trials,accuracy_overall,n_posterior_draws,condition,id,slurm_id,split,spacing,estimation_level,number_parts,time_post_sampling_sec
0,0.0,0.4214641363002192,0.34228671879406325,0.360183488326771,0.3738977571473827,0.38756301334623317,0.40179284424512607,0.4184911866616527,0.440964910699832,0.4720417793095611,0.5268667039999627,1.1201649216363205,0.9781052631578947,0.42850500876417896,0.0,0.9703174603174604,50,1168,1108,772035,no_split,wide,individual,1,0.49855542182922363
1,1.0,0.4356207841266914,0.35550387901407066,0.3741675121472347,0.38894321634748746,0.40349779257439056,0.41996589658222216,0.43774064319741407,0.4589666588574331,0.48764445456255556,0.5370887529318105,1.1421672300504908,0.9624468085106384,0.42850500876417896,0.0,0.9703174603174604,50,1168,1108,772035,no_split,wide,individual,1,0.49855542182922363
0,0.0,0.4479936755028613,0.36321029438796,0.383746332843593,0.4000808512941819,0.41448093404977465,0.42970438461582494,0.44802907890645016,0.47063446855482316,0.5002125228621982,0.5535056394177471,1.0541571659709297,0.9706878306878307,0.4555168757799682,0.0,0.9621052631578947,50,1168,1507,772035,no_split,wide,individual,1,0.5100045204162598
1,1.0,0.46296129909082273,0.36860063708511875,0.38978353318919257,0.40848438976367274,0.4254083769285205,0.4435620952344067,0.4641707724342029,0.4900623891667707,0.5266214003090681,0.5838333230111526,1.1440373173077658,0.9536125654450262,0.4555168757799682,0.0,0.9621052631578947,50,1168,1507,772035,no_split,wide,individual,1,0.5100045204162598
0,0.0,0.4572715807857586,0.36308006644059204,0.38696610433219425,0.40635923637000576,0.4242670447564131,0.44163475655876316,0.4613749486270378,0.4840428446800723,0.5163404257372348,0.5702332947932138,1.075050274397529,0.9877894736842106,0.4639121770970654,0.0,0.9835170603674541,50,1168,1538,772035,no_split,wide,individual,1,0.5086636543273926
1,1.0,0.4705180058884178,0.36811607174727046,0.39513150766152044,0.415542170908409,0.43456157071101115,0.4537587558708891,0.4748639667889587,0.49962996643259794,0.5353656201853583,0.5920793640707294,1.205038072714376,0.9792670157068063,0.4639121770970654,0.0,0.9835170603674541,50,1168,1538,772035,no_split,wide,individual,1,0.5086636543273926
0,0.0,0.4708431190911483,0.3797772490030963,0.4012536637522717,0.4192576842337318,0.4366675997446208,0.4547254952801742,0.47330063757731516,0.4979258916249877,0.5304732255586623,0.5833403202176981,1.1469931297300693,0.986195652173913,0.47365269828451,0.0,0.9847567567567568,50,1168,1582,772035,no_split,wide,individual,1,0.5064816474914551
1,1.0,0.47643206694891077,0.39003054997800957,0.4108254368361958,0.42855725430380176,0.4452159934328265,0.4615684543113739,0.4800044257538429,0.5012996179689618,0.5329329651407722,0.5840978661940386,1.1430290328730084,0.9833333333333333,0.47365269828451,0.0,0.9847567567567568,50,1168,1582,772035,no_split,wide,individual,1,0.5064816474914551
0,0.0,0.44256549112904264,0.3637743371899293,0.38318052714318496,0.3988701947439863,0.4123494297446858,0.4267945906515445,0.44267406107568674,0.46316094450524253,0.49053022866884183,0.5396587623012482,1.0786448973165352,0.9758115183246073,0.45417094727305074,0.0,0.956135770234987,50,1168,1583,772035,no_split,wide,individual,1,0.5030725002288818
1,1.0,0.4657159583329754,0.3780059562892346,0.4002363632572509,0.41675838134442,0.43303582594061646,0.4498362166938296,0.4690424329072807,0.4918889673093171,0.5220834784427946,0.5734523425349253,0.999023838607027,0.9365625,0.45417094727305074,0.0,0.956135770234987,50,1168,1583,772035,no_split,wide,individual,1,0.5030725002288818
0,0.0,0.5764885347631924,0.41093536187607027,0.44477007150322945,0.47418367530210837,0.5027384364433035,0.5348125267990604,0.5714258509116035,0.6171131060138617,0.683504047920983,0.7990697093495074,1.5595102201915534,0.9665536723163842,0.5807953837328237,0.0,0.965054945054945,50,1168,1597,772035,no_split,wide,individual,1,0.5016908645629883
1,1.0,0.5848719199233302,0.4182755862447331,0.45377808673975295,0.48278143102766097,0.5135915731913052,0.5462971383971997,0.5833795519538507,0.6297588370046471,0.6929019800320063,0.8054860897372473,1.5699185313859714,0.9636363636363636,0.5807953837328237,0.0,0.965054945054945,50,1168,1597,772035,no_split,wide,individual,1,0.5016908645629883
0,0.0,0.4084781182527546,0.33866640276690607,0.3584181908947953,0.37436447348068325,0.3876179193989106,0.40045458988796157,0.4138604375371748,0.4311304398443522,0.45276459960740384,0.4873858033172906,0.9275246112326129,0.9948421052631579,0.418034820420677,0.0,0.9912401055408971,50,1168,1601,772035,no_split,wide,individual,1,0.5076498985290527
1,1.0,0.4276420871503345,0.345059988408559,0.3670506931634075,0.3837918421153658,0.3985658041403095,0.4144160861613731,0.4314762139560173,0.4522486760182506,0.4793283509260608,0.5261106414698288,1.0156804244706394,0.9876190476190476,0.418034820420677,0.0,0.9912401055408971,50,1168,1601,772035,no_split,wide,individual,1,0.5076498985290527
0,0.0,0.4876916049736057,0.3571417985496708,0.38584275044488164,0.41013439082414976,0.4345156818659366,0.45879873563400897,0.4860047662058149,0.5210705850776104,0.5693494480600841,0.6553056061628607,1.3603681030411325,0.9752631578947368,0.49555369979162106,0.0,0.9691578947368421,50,1168,1614,772035,no_split,wide,individual,1,0.5038518905639648
1,1.0,0.5034157946096366,0.36168954061040015,0.3963755303882024,0.42305997257085665,0.4484942045635895,0.4751856596991404,0.5044251082527902,0.5428093611816563,0.5962386118155676,0.6821656584773498,1.435692734202993,0.9630526315789474,0.49555369979162106,0.0,0.9691578947368421,50,1168,1614,772035,no_split,wide,individual,1,0.5038518905639648
0,0.0,0.4328375203921069,0.37963763880344115,0.39505969962665477,0.40694764864848376,0.4171900581748835,0.4272210590894322,0.43856612443889054,0.4510624259679928,0.4667621354779177,0.4922366617003447,0.7076648076589034,0.9969473684210526,0.43810463357689433,0.0,0.996010498687664,50,1168,161753,772035,no_split,wide,individual,1,0.5067300796508789
1,1.0,0.4433441702528609,0.38339744615971594,0.39960185344132115,0.41295975108465444,0.42423290002224784,0.4364257203721932,0.44846215725965516,0.4629886765232448,0.4817578484468263,0.5112443488728012,0.772489039917431,0.9950785340314137,0.43810463357689433,0.0,0.996010498687664,50,1168,161753,772035,no_split,wide,individual,1,0.5067300796508789
0,0.0,0.4721754346165938,0.37451428321618263,0.3971334365932047,0.4158274421556659,0.43273843397077805,0.4511526699842515,0.4715038551767205,0.4984411629480462,0.5367778520908216,0.598373066460109,1.0774115163317228,0.984468085106383,0.4770422357336119,0.0,0.9796306068601583,50,1168,1638,772035,no_split,wide,individual,1,0.5044515132904053
1,1.0,0.48183259494826847,0.38712583050268223,0.40984948399341,0.427961287049657,0.4451583448201866,0.4634944451079233,0.48344933092571396,0.5084083359843982,0.5420657406556197,0.599550380265656,1.119778929556816,0.974869109947644,0.4770422357336119,0.0,0.9796306068601583,50,1168,1638,772035,no_split,wide,individual,1,0.5044515132904053
0,0.0,0.39676757202416935,0.3301866875587033,0.34811761554677134,0.36214574077606726,0.3742950121231548,0.3868223003510002,0.40033203780437,0.41699722358431085,0.43964930750233233,0.47448005409600574,0.9395131432681344,0.9830526315789474,0.40543115237500593,0.0,0.9719261213720317,50,1168,1657,772035,no_split,wide,individual,1,0.5083134174346924
1,1.0,0.4141405717753179,0.33782005921112884,0.3574513810050193,0.3718826284205633,0.38671538815920564,0.4017278670149796,0.41821107194467827,0.4371511419561015,0.46405386902574225,0.506535631214116,0.9183222780639908,0.9607407407407408,0.40543115237500593,0.0,0.9719261213720317,50,1168,1657,772035,no_split,wide,individual,1,0.5083134174346924
0,0.0,0.4684657576434263,0.380908926852251,0.4001773539092014,0.41621572608873353,0.43039081664927403,0.44658828976076315,0.4660167084071409,0.49031561200685014,0.5261129078617292,0.5871237469105719,1.1081718132417726,0.9868085106382979,0.4759029055878881,0.0,0.9850793650793651,50,1168,1663,772035,no_split,wide,individual,1,0.5049381256103516
1,1.0,0.48326176776451346,0.3906922494476773,0.4115815231480147,0.4290641984873964,0.4459156081481317,0.4653044109889237,0.4860565953424559,0.5111348219436322,0.5449571351895947,0.6000524810479044,1.2207734750172332,0.9833684210526316,0.4759029055878881,0.0,0.9850793650793651,50,1168,1663,772035,no_split,wide,individual,1,0.5049381256103516
0,0.0,0.5141375231022334,0.4033325362178678,0.4309290194462349,0.4534357417325525,0.47408376352964904,0.4947257596872675,0.5172778982587402,0.5448137869858518,0.5832458789920753,0.6483742413142101,1.3529969218353521,0.9778494623655914,0.5250942879978084,0.0,0.9703485254691689,50,1168,1761,772035,no_split,wide,individual,1,0.5014846324920654
1,1.0,0.5359924605677386,0.4114117261398217,0.4433323631835764,0.46896352762309,0.4906207421600234,0.5137499974637014,0.5403612558356164,0.5716491982700308,0.6143496583421505,0.6879014505841523,1.2901509135681792,0.9628877005347594,0.5250942879978084,0.0,0.9703485254691689,50,1168,1761,772035,no_split,wide,individual,1,0.5014846324920654
0,0.0,0.4519368760373857,0.3474532775455551,0.37475206049765053,0.3953096329316972,0.41485397041385813,0.4337640338041147,0.45607890431023956,0.48222782865530045,0.5178845727910008,0.5777700043916741,1.2412201099099223,0.9379057591623037,0.4568435810655579,0.0,0.9306806282722513,50,1168,1768,772035,no_split,wide,individual,1,0.5068962574005127
1,1.0,0.4617502860937303,0.35426968968524575,0.3816364242590366,0.4036895663515349,0.4241256957795141,0.44423525789929386,0.46693179136603147,0.49329891195492914,0.5294563417860305,0.5900895450235253,1.276376920918024,0.9234554973821989,0.4568435810655579,0.0,0.9306806282722513,50,1168,1768,772035,no_split,wide,individual,1,0.5068962574005127
0,0.0,0.3772542098376734,0.30454311070001866,0.32513741230492643,0.3406334149195369,0.3539246199972703,0.3668603828353316,0.38166854995805044,0.3992673455746965,0.42249890657537403,0.46035881137662893,0.8553697451209924,0.9632978723404255,0.382322103124921,0.0,0.9533510638297872,50,1168,1813,772035,no_split,wide,individual,1,0.506371259689331
1,1.0,0.3873899964121684,0.3097271344491375,0.3288822390754044,0.34470976350533666,0.3598868868344707,0.37481298709148286,0.39089460394323167,0.4101871712213017,0.43752189694964067,0.4831042987795334,0.9203742399188861,0.943404255319149,0.382322103124921,0.0,0.9533510638297872,50,1168,1813,772035,no_split,wide,individual,1,0.506371259689331
0,0.0,0.3912902348141518,0.3169584603158007,0.3365022554321768,0.35138992236136096,0.3644273157453715,0.3782039752036054,0.3931262593898664,0.41242580709132054,0.4372613989951109,0.4807361717996449,1.0679187556208092,0.9872631578947368,0.3962437814293477,0.0,0.9828346456692914,50,1168,1821,772035,no_split,wide,individual,1,0.5085141658782959
1,1.0,0.4011713932455111,0.3216525108706689,0.34057242728092846,0.35627221440497103,0.37091312384268343,0.38628843766303844,0.4037463566410339,0.424788852627993,0.45232492258706125,0.5003434141681207,0.8828052395517269,0.9784293193717277,0.3962437814293477,0.0,0.9828346456692914,50,1168,1821,772035,no_split,wide,individual,1,0.5085141658782959
0,0.0,0.4385595097256396,0.35550804299017474,0.37645918142038653,0.3932727999311816,0.4094467929169377,0.42529008889893716,0.4433791919563067,0.4655836403064642,0.4941726381759567,0.5378894415739292,0.9693358303826981,0.9895287958115183,0.4450622518595044,0.0,0.9875531914893617,50,1168,275,772035,no_split,wide,individual,1,0.5099396705627441
1,1.0,0.45177589373825144,0.3576225329730282,0.37945753205653815,0.3975244275689285,0.4142732429106008,0.43252673828090704,0.45201729274151675,0.47750200478179194,0.5106530440861604,0.5711941934003296,1.131309408207934,0.9855135135135135,0.4450622518595044,0.0,0.9875531914893617,50,1168,275,772035,no_split,wide,individual,1,0.5099396705627441
0,0.0,0.37897285384368556,0.31039226649167323,0.32587483072552154,0.33762642478223137,0.3502522622102909,0.36296953088143613,0.3783315594907151,0.39734975135720385,0.4219930528654538,0.46963180997019954,0.8562016654832858,0.9829787234042553,0.384880519358751,0.0,0.9783554376657825,50,1168,3286,772035,no_split,wide,individual,1,0.5198667049407959
1,1.0,0.39075692738431883,0.31414088399479223,0.3309015325995686,0.3448067331442951,0.35807056192072667,0.37253602199648617,0.3901472305862284,0.41155098406814167,0.4427148872402495,0.491212032530121,0.8767474715688581,0.9737566137566137,0.384880519358751,0.0,0.9783554376657825,50,1168,3286,772035,no_split,wide,individual,1,0.5198667049407959
0,0.0,0.4578956987904362,0.36657557906448834,0.38963085131023406,0.40819040955894,0.4240640593737228,0.44120758444379027,0.46050885756222076,0.48381738283997733,0.5155636530465741,0.5690110326181829,1.1370927145932272,0.9866666666666667,0.46683861633645446,0.0,0.9809498680738786,50,1168,3292,772035,no_split,wide,individual,1,0.5075304508209229
1,1.0,0.47573446589538854,0.3749945620914647,0.4004827651921492,0.4205382855176909,0.43946440063779457,0.45983999127111064,0.48058393379630004,0.5047254907949839,0.5418848374749536,0.5965860491722909,1.199908686452025,0.9752631578947368,0.46683861633645446,0.0,0.9809498680738786,50,1168,3292,772035,no_split,wide,individual,1,0.5075304508209229
0,0.0,0.45019426038999805,0.37333772011093275,0.3954863138269037,0.41162833755298855,0.42658831682373805,0.4413519819713248,0.4577918355718966,0.4755585039167819,0.4986571968806864,0.536233443152701,0.8661376808901461,0.9927368421052631,0.4558856165182481,0.0,0.9901837270341207,50,1168,337788,772035,no_split,wide,individual,1,0.5143105983734131
1,1.0,0.4615471749704341,0.37662551894643403,0.3994364802462351,0.41715465109205796,0.4327775194634529,0.4492992610206847,0.4672855642827496,0.4873474218671967,0.5159975588051696,0.5607242933576148,1.0539409997845066,0.9876439790575916,0.4558856165182481,0.0,0.9901837270341207,50,1168,337788,772035,no_split,wide,individual,1,0.5143105983734131
0,0.0,0.4079250873948215,0.3300732913253571,0.34712891138078394,0.3611850211363657,0.3741981188196258,0.38798665417080425,0.404661946781439,0.42655956947776197,0.4579153407225538,0.5102180788049816,1.0232267681084246,0.9851336898395722,0.4209381540750823,0.0,0.9720967741935483,50,1168,3487,772035,no_split,wide,individual,1,0.511420726776123
1,1.0,0.43409190255729174,0.34244598463027565,0.3631009634178086,0.3799793027148611,0.3964842132548686,0.4147172180922155,0.4352500758605579,0.46030451986424537,0.49639749118998266,0.5520581939936278,1.0510779102909409,0.9589189189189189,0.4209381540750823,0.0,0.9720967741935483,50,1168,3487,772035,no_split,wide,individual,1,0.511420726776123
0,0.0,0.4114351533061321,0.35113763475656107,0.3679764836108935,0.3810859943568995,0.3928868476176383,0.40436785869755887,0.41652614630196527,0.43155996173636424,0.44946985777190596,0.4812143724678162,0.9435737586293488,0.9881675392670157,0.41772713205894996,0.0,0.98,50,1168,3580,772035,no_split,wide,individual,1,0.5135583877563477
1,1.0,0.4241536985925768,0.3560999541864985,0.375051157674715,0.38937144962524706,0.4025426246601872,0.41553410309934036,0.4298683365123804,0.44617300288716605,0.4682018656573468,0.502134467493741,0.800833237516651,0.9716577540106952,0.41772713205894996,0.0,0.98,50,1168,3580,772035,no_split,wide,individual,1,0.5135583877563477
0,0.0,0.4741530523452009,0.3730859567356965,0.3986733666148516,0.4184392476435912,0.43698287960135446,0.4558661998080617,0.4770455064825006,0.501904240463536,0.5364219240005664,0.60039883684313,1.087133637562767,0.9684615384615385,0.48603057638044184,0.0,0.9493370165745857,50,1168,3625,772035,no_split,wide,individual,1,0.5115616321563721
1,1.0,0.49804007290496327,0.3897643991274029,0.4186738597089255,0.4416222513222417,0.4611813910334335,0.48172965103419607,0.503029253934835,0.5289712892179205,0.5668778493585149,0.6298188731638652,1.3522550373883706,0.93,0.48603057638044184,0.0,0.9493370165745857,50,1168,3625,772035,no_split,wide,individual,1,0.5115616321563721
0,0.0,0.5475989215386088,0.44009947971342867,0.46855221397470675,0.49106225863547975,0.5125511384503655,0.5327557505478138,0.5544095732836738,0.5806584351044939,0.6152268459168291,0.6725092022190442,1.2237721272669921,0.9953926701570681,0.5551269662104295,0.0,0.9931233595800525,50,1168,3754,772035,no_split,wide,individual,1,0.5144238471984863
1,1.0,0.5626946321699966,0.4448833092678777,0.47744169646976004,0.5018567285796174,0.5243599883956416,0.5472427368474373,0.5720492583554554,0.5998682845180522,0.6370421662868115,0.7008495282667737,1.243114847745023,0.9908421052631579,0.5551269662104295,0.0,0.9931233595800525,50,1168,3754,772035,no_split,wide,individual,1,0.5144238471984863
0,0.0,0.4163452158176371,0.3426940693566258,0.3625161422931969,0.37639849776647605,0.3891973951099961,0.4032743028567002,0.4176972490865149,0.4368042114485773,0.46245736843620305,0.5078492790841634,0.9656184272440975,0.9774603174603175,0.4211052728245082,0.0,0.9724538258575198,50,1168,3910,772035,no_split,wide,individual,1,0.5142562389373779
1,1.0,0.4258402768997642,0.34597816596063935,0.36593365312703907,0.38129224917878807,0.3955113091016848,0.410284547736839,0.42708206384027103,0.447929979182271,0.4777882852802599,0.5234400245399679,0.9186200862198053,0.9674736842105263,0.4211052728245082,0.0,0.9724538258575198,50,1168,3910,772035,no_split,wide,individual,1,0.5142562389373779
0,0.0,0.40724706966790314,0.3434233075257224,0.35785606124861036,0.3698046594278684,0.3816005729189561,0.39387870539886694,0.40764808449644385,0.42542452051565777,0.44913996292610003,0.48798765654580945,0.9024937852387049,0.9801052631578947,0.4119314027517589,0.0,0.9754089709762533,50,1168,4222,772035,no_split,wide,individual,1,0.5144293308258057
1,1.0,0.4166405206667461,0.34886260358053,0.36575621015008647,0.3786160638493577,0.391409089155023,0.40436163058879626,0.41948469006621425,0.43731686671760295,0.4599838987668561,0.49819761483458486,0.8799204490457186,0.9706878306878307,0.4119314027517589,0.0,0.9754089709762533,50,1168,4222,772035,no_split,wide,individual,1,0.5144293308258057
0,0.0,0.45555688480515655,0.34848871584783875,0.37306661729900503,0.39324717836143647,0.41219551083045686,0.43204636058246393,0.45364767923866767,0.48482528052773327,0.5242008105332109,0.5918495725208354,1.3930736366294827,0.9526984126984127,0.4652685610997418,0.0,0.9306349206349206,50,1168,4264,772035,no_split,wide,individual,1,0.5099546909332275
1,1.0,0.4749802373943272,0.3646083473558716,0.392540868095542,0.41406254752227056,0.4347415698001815,0.454304695340805,0.4770909474085015,0.5050542896052785,0.541717615892586,0.6073293482194941,1.2778340314570322,0.9085714285714286,0.4652685610997418,0.0,0.9306349206349206,50,1168,4264,772035,no_split,wide,individual,1,0.5099546909332275
0,0.0,0.4343024826461472,0.3743710267395549,0.38938793883964185,0.40257108671730796,0.4130464713293268,0.4241189664976961,0.43662086727702204,0.45136598695433156,0.4722534450314417,0.5062587637761302,0.8837624949978928,0.9932978723404255,0.4394357726424029,0.0,0.9905066666666666,50,1168,5281,772035,no_split,wide,individual,1,0.5159614086151123
1,1.0,0.44459651338730166,0.3794098214729197,0.394736275748974,0.4077514856619029,0.41940382132619686,0.4319835812017415,0.4461484224877334,0.4636409741853781,0.48761253526032233,0.5280261333488225,0.8957026599056428,0.9877005347593583,0.4394357726424029,0.0,0.9905066666666666,50,1168,5281,772035,no_split,wide,individual,1,0.5159614086151123
0,0.0,0.46223710797847717,0.38021242509409775,0.3989159467934161,0.41479818917473593,0.42917939350836143,0.4454922608919255,0.4638542501339154,0.4855795516488833,0.5148871318244322,0.5653071600227976,1.1230970193014345,0.997037037037037,0.47079339741723225,0.0,0.9962133333333333,50,1168,5332,772035,no_split,wide,individual,1,0.5152761936187744
1,1.0,0.4794876915243543,0.3836272247761661,0.4055655605278533,0.4231700804779916,0.4400190583680103,0.45850406448750053,0.47953053925698175,0.5074969830682469,0.544354318111004,0.6034746540557089,1.146545059356621,0.9953763440860215,0.47079339741723225,0.0,0.9962133333333333,50,1168,5332,772035,no_split,wide,individual,1,0.5152761936187744
0,0.0,0.4486587668194818,0.36741145828113686,0.3871940259462152,0.4031464996166761,0.41821680140372536,0.43351890427769313,0.4510878501827763,0.47132467448253906,0.49874783076707135,0.5456077289543712,1.033153109528021,0.9785263157894737,0.4598184902605045,0.0,0.9626912928759894,50,1168,5575,772035,no_split,wide,individual,1,0.5168533325195312
1,1.0,0.4710372598572998,0.3751623588476639,0.3987477259931868,0.4173486503903673,0.4355825025977729,0.4530431266493353,0.47413007947147984,0.49896579233127897,0.5331025484616184,0.5885010318234128,1.05360141631098,0.9467724867724868,0.4598184902605045,0.0,0.9626912928759894,50,1168,5575,772035,no_split,wide,individual,1,0.5168533325195312
0,0.0,0.451920713859488,0.36568358386643035,0.384267098002092,0.3994903945454137,0.4145221786873072,0.4308485149916734,0.4499792617303742,0.47415513714202967,0.5074399875466481,0.567733595997646,1.1422805113653802,0.9608743169398907,0.45784426533595407,0.0,0.9539083557951482,50,1168,5731,772035,no_split,wide,individual,1,0.5194337368011475
1,1.0,0.46361027554974826,0.3731506731211051,0.39464495231855706,0.4118384459548102,0.4279304487385413,0.4449309546851564,0.46478687087156795,0.4893869622098334,0.5228894677409857,0.5785038549323602,1.0722563231077316,0.9471276595744681,0.45784426533595407,0.0,0.9539083557951482,50,1168,5731,772035,no_split,wide,individual,1,0.5194337368011475
0,0.0,0.42917332739355896,0.3535790875880204,0.37550443468468886,0.3921797054439239,0.4081682569780343,0.42255440405612804,0.43757525672830316,0.45442143295742965,0.47575450147860954,0.5114764271751014,1.0222816737699005,0.9927659574468085,0.44172940350778117,0.0,0.9788328912466844,50,1168,5761,772035,no_split,wide,individual,1,0.5141918659210205
1,1.0,0.4542190453568489,0.36929921219460593,0.3939709598054983,0.4129271686436647,0.42953774496846786,0.44559684446969305,0.4634832691180503,0.48396438526104985,0.5091610071101247,0.5491840362989195,0.8927692397064009,0.9649735449735449,0.44172940350778117,0.0,0.9788328912466844,50,1168,5761,772035,no_split,wide,individual,1,0.5141918659210205
0,0.0,0.4296344193653081,0.33477677008213036,0.35742148198926066,0.3750252339363797,0.39253440694193975,0.41035727650767906,0.43053899654985717,0.45615712942451425,0.4900747538016691,0.5483849251748922,1.0380574108144551,0.9308333333333333,0.43195516025139097,0.0,0.9236979166666667,50,1168,5803,772035,no_split,wide,individual,1,0.5139312744140625
1,1.0,0.43427590113747383,0.3352979071875131,0.3587423512522467,0.3773781888930091,0.39573951427983406,0.41416950340516856,0.4354842318204139,0.4607807035989571,0.49741851456535874,0.5604195952413691,1.270636518905208,0.9165625,0.43195516025139097,0.0,0.9236979166666667,50,1168,5803,772035,no_split,wide,individual,1,0.5139312744140625
0,0.0,0.5019055157263611,0.38850173806996136,0.4176927085653208,0.44015288983170087,0.46035057091128234,0.48200545171862486,0.5054840763000096,0.5334778450753523,0.5707436499726454,0.635296278689031,1.4423995987290477,0.9698958333333333,0.5119793812149902,0.0,0.9576439790575916,50,1168,5815,772035,no_split,wide,individual,1,0.5135197639465332
1,1.0,0.5221592873929731,0.3993156576450585,0.4319625799137258,0.4565467088150862,0.47893301324404575,0.5030391638068279,0.5289831942908939,0.5590399711403065,0.6014463629446407,0.6702123497433319,1.3780187393350738,0.9452631578947368,0.5119793812149902,0.0,0.9576439790575916,50,1168,5815,772035,no_split,wide,individual,1,0.5135197639465332
0,0.0,0.4139638074024469,0.3526991925883255,0.3679490701274521,0.3798597254046831,0.3913472190325104,0.4032750096167246,0.4159619577782257,0.4309749381984886,0.4520732225798128,0.48779711683647403,0.9482256742275618,0.996421052631579,0.42477767812731326,0.0,0.9945502645502645,50,1168,6055,772035,no_split,wide,individual,1,0.5099208354949951
1,1.0,0.4357065900301038,0.36071235069456503,0.37830786648266834,0.3929808401935903,0.40720226400816667,0.4216571430982502,0.43849997933351925,0.45829216201159023,0.484860224550246,0.5289002488338845,0.92418914845503,0.9926595744680851,0.42477767812731326,0.0,0.9945502645502645,50,1168,6055,772035,no_split,wide,individual,1,0.5099208354949951
0,0.0,0.46460408326714203,0.3538887899340502,0.37834533884878374,0.3994535624085071,0.41901983005822135,0.4389769443817976,0.4618566442028535,0.4918822340797252,0.5349778862233978,0.6057671958565249,1.38501198439908,0.9674594594594594,0.47006181043213785,0.0,0.9612332439678284,50,1168,6109,772035,no_split,wide,individual,1,0.5003714561462402
1,1.0,0.47543244620620284,0.36897946752652394,0.39422223094418657,0.4148423990791464,0.4351979429133329,0.4555669031581677,0.4776842896612111,0.5054230413862071,0.544860678503577,0.6096457504457703,1.2635079401957008,0.9551063829787234,0.47006181043213785,0.0,0.9612332439678284,50,1168,6109,772035,no_split,wide,individual,1,0.5003714561462402
0,0.0,0.391716602878643,0.33360732011274985,0.3482489617386588,0.35968114147181074,0.37044450116434524,0.3821237984243633,0.39491982253733215,0.4096804380369256,0.42864123873303445,0.4610669009933978,0.8143283411138891,0.9930890052356021,0.40402039393778577,0.0,0.9822976501305483,50,1168,6214,772035,no_split,wide,individual,1,0.5125560760498047
1,1.0,0.4162601027518289,0.33982824291793684,0.35719500759182615,0.37218094683195513,0.3855113506410423,0.4008571385236912,0.41807993581888253,0.43919962571305904,0.46819223096868734,0.5128516118642614,0.8593597649604056,0.9715625,0.40402039393778577,0.0,0.9822976501305483,50,1168,6214,772035,no_split,wide,individual,1,0.5125560760498047
0,0.0,0.46082624234761826,0.36174506441731136,0.3915142768899454,0.4128996609650052,0.433297969403773,0.45259273394380706,0.4723767442640223,0.4962324034224105,0.5234913896512657,0.5679949122650099,1.2734014486641445,0.951005291005291,0.46376016679823046,0.0,0.944021164021164,50,1168,6253,772035,no_split,wide,individual,1,0.5031614303588867
1,1.0,0.4666940912488426,0.3688832316682717,0.3974461143693918,0.41858696450531074,0.43786934804538635,0.4579800807516299,0.47837169401929563,0.5010721209053871,0.5296731334930298,0.574852822027543,1.026584643428881,0.937037037037037,0.46376016679823046,0.0,0.944021164021164,50,1168,6253,772035,no_split,wide,individual,1,0.5031614303588867
0,0.0,0.45874034567798766,0.37907164533224763,0.4017914456664048,0.41903296323705624,0.43399091072307533,0.44915429132078727,0.46564029693374437,0.48519742036772,0.509263526535696,0.5488429998812768,0.9770647132184893,0.982421052631579,0.4618739250275898,0.0,0.9821522309711286,50,1168,6262,772035,no_split,wide,individual,1,0.5045292377471924
1,1.0,0.46499109820258683,0.3803968760568524,0.4040040106142569,0.4218652519323916,0.43930084403702935,0.45543248092504734,0.47299740759206466,0.49291637614047995,0.5190638052688775,0.5621967486907349,0.8994220025300458,0.9818848167539267,0.4618739250275898,0.0,0.9821522309711286,50,1168,6262,772035,no_split,wide,individual,1,0.5045292377471924
0,0.0,0.4940877723827561,0.4041467342671436,0.4255077090255967,0.44186899906505317,0.45832844004531925,0.475374417638993,0.49515512347957,0.5200469647633351,0.5518910503188179,0.6080668721306752,1.1345776713174982,0.9957894736842106,0.5066505837743024,0.0,0.9911578947368421,50,1168,6361,772035,no_split,wide,individual,1,0.49334073066711426
1,1.0,0.5192133951658486,0.4238390500057525,0.4489843319157978,0.46797974771076334,0.48587081991408426,0.5041391596121036,0.5250780709258286,0.5489216159041924,0.5807368246075273,0.631726864603227,1.249722223186137,0.9865263157894737,0.5066505837743024,0.0,0.9911578947368421,50,1168,6361,772035,no_split,wide,individual,1,0.49334073066711426
0,0.0,0.41189138530341846,0.34689957853308073,0.3644294540331812,0.378657343726544,0.391391861286138,0.4036947678118389,0.4170287137851264,0.4321546734144108,0.45249920613738753,0.48566377039514913,0.9090115519664828,0.9888421052631579,0.41579305573582653,0.0,0.9861741424802111,50,1168,6427,772035,no_split,wide,individual,1,0.4918537139892578
1,1.0,0.4197153699271363,0.35116757876016935,0.3698644614938967,0.3843561791613284,0.396950178835798,0.4106762759347697,0.4248736866227233,0.4411449631291567,0.4629189869004872,0.4997772078984906,0.9347059142655632,0.9834920634920635,0.41579305573582653,0.0,0.9861741424802111,50,1168,6427,772035,no_split,wide,individual,1,0.4918537139892578
0,0.0,0.4628212164631197,0.38604514246289023,0.4064774649242764,0.42195432525021026,0.4361856380242193,0.4511638766042309,0.4673779946418141,0.48599563628024406,0.5112954398900741,0.5531780115524847,0.9372953424480472,0.9797872340425532,0.4673220971330607,0.0,0.9745066666666666,50,1168,6583,772035,no_split,wide,individual,1,0.4965512752532959
1,1.0,0.4718470466835897,0.38916586035881107,0.41070110379232994,0.4267455099633524,0.4424451383469904,0.45838673522234874,0.47544825482395203,0.49801471034607103,0.5242302485027,0.5714284047039171,1.043236563077895,0.9691978609625669,0.4673220971330607,0.0,0.9745066666666666,50,1168,6583,772035,no_split,wide,individual,1,0.4965512752532959
0,0.0,0.44037645954447746,0.36117697286467965,0.3829831716360882,0.40051049411881234,0.4154673687478536,0.4310221176308335,0.4480476481163454,0.467315968152038,0.489697332536074,0.5294120966477522,1.1378039245282274,0.9803174603174604,0.4513379247186454,0.0,0.966096256684492,50,1168,6634,772035,no_split,wide,individual,1,0.4918820858001709
1,1.0,0.4625363945452278,0.3654524648261467,0.3909563629275302,0.41032189523063906,0.42813298291951424,0.44718840856807074,0.4673492653113348,0.4921847276255909,0.5251065828847018,0.5808093861985086,1.0976625660702688,0.9515675675675676,0.4513379247186454,0.0,0.966096256684492,50,1168,6634,772035,no_split,wide,individual,1,0.4918820858001709
0,0.0,0.45843447368512813,0.3815158245771029,0.4016521448655079,0.41680167109306376,0.4307327781477662,0.4457046216454713,0.4616680785463576,0.48079174350104315,0.5079749323951555,0.5513151005943052,0.9849293608268391,0.9879166666666667,0.46496245998342806,0.0,0.9812532637075718,50,1168,6844,772035,no_split,wide,individual,1,0.4930541515350342
1,1.0,0.4715246242204627,0.3952136276219631,0.417232762238138,0.4322300303530848,0.4466215352278006,0.46137425988343106,0.47674444444662994,0.4964577403829801,0.5210225910228972,0.5585608351775011,0.9945068629105408,0.9745549738219895,0.46496245998342806,0.0,0.9812532637075718,50,1168,6844,772035,no_split,wide,individual,1,0.4930541515350342
0,0.0,0.44176492210703794,0.35156234975492234,0.374818542262228,0.39363952024283533,0.4096466998747148,0.42638513698545966,0.4432512893149268,0.4661662459650525,0.49484976580263834,0.5498081443795112,1.1057183382990414,0.984,0.460800534876497,0.0,0.9571204188481676,50,1168,7624,772035,no_split,wide,individual,1,0.4860267639160156
1,1.0,0.47963786001294095,0.37520371006616404,0.4036211258806894,0.42575387716068236,0.4473350415879134,0.46746150844867995,0.4885447988497059,0.5146406735600622,0.5471790942635169,0.5976440803633326,1.021091861473193,0.9305208333333334,0.460800534876497,0.0,0.9571204188481676,50,1168,7624,772035,no_split,wide,individual,1,0.4860267639160156
0,0.0,0.4135402271408095,0.3376760715982281,0.3588696850411265,0.374604537639682,0.38805585218071664,0.4012122320868383,0.41621987592828036,0.43556133708944544,0.4590807598996192,0.5043641782013957,0.9492825971352394,0.9753125,0.41954157838301226,0.0,0.9621989528795811,50,1168,7756,772035,no_split,wide,individual,1,0.4913942813873291
1,1.0,0.4256061017435539,0.343577790218683,0.36488608426099056,0.38084233066702905,0.39627127341448737,0.41140566702722864,0.42960107778091516,0.4496441287313157,0.47767559155212336,0.524620248519542,0.985275667348642,0.9489473684210527,0.41954157838301226,0.0,0.9621989528795811,50,1168,7756,772035,no_split,wide,individual,1,0.4913942813873291
0,0.0,0.4213115359434692,0.33466743216610695,0.35955629679149476,0.37775606584527904,0.3942755906581537,0.4110672392613914,0.42776009260307746,0.4473099000873635,0.47315749775130395,0.518599447516156,1.273539403002826,0.9776595744680852,0.43393215537363344,0.0,0.9583914209115282,50,1168,7768,772035,no_split,wide,individual,1,0.48830413818359375
1,1.0,0.44675743349725994,0.34615726380584555,0.373824475375139,0.39362600864968594,0.413442851767936,0.432355522084653,0.4544945221401293,0.4794400516357229,0.5115356591157049,0.5667467083969789,0.9512310430799478,0.9388108108108109,0.43393215537363344,0.0,0.9583914209115282,50,1168,7768,772035,no_split,wide,individual,1,0.48830413818359375
0,0.0,0.4111435355712271,0.3187801831347552,0.34065780900971293,0.3585898548251437,0.3757448384369952,0.3943840972649868,0.41305056452253536,0.4360377917421536,0.4691446872559326,0.5281975775325566,1.199540718741244,0.943979057591623,0.41558029943511265,0.0,0.9318324607329843,50,1168,7807,772035,no_split,wide,individual,1,0.4883236885070801
1,1.0,0.42001706329899824,0.33059276861229125,0.3531589168626449,0.3714430120232413,0.38826137466624777,0.40522358014776927,0.42385770886639984,0.44599842711671456,0.4776926522155376,0.5269458025129282,1.048284178346868,0.9196858638743456,0.41558029943511265,0.0,0.9318324607329843,50,1168,7807,772035,no_split,wide,individual,1,0.4883236885070801
0,0.0,0.39966018298046097,0.32758760346867155,0.3431423373125492,0.3562200811286227,0.36894790928956467,0.3826683310434773,0.3977234775858243,0.4169602720354038,0.4446041208607164,0.49413947732224317,1.0750965466853795,0.9763541666666666,0.40680731523982916,0.0,0.9657742782152231,50,1168,7813,772035,no_split,wide,individual,1,0.4893767833709717
1,1.0,0.4140678940429968,0.33462470668080263,0.3512056213614741,0.36581392045405137,0.38042018382434517,0.3959827233303126,0.4139216220324233,0.43548142115443556,0.4668635924499913,0.5169257161342653,0.9451830928249929,0.955026455026455,0.40680731523982916,0.0,0.9657742782152231,50,1168,7813,772035,no_split,wide,individual,1,0.4893767833709717
0,0.0,0.41714490510581337,0.35627250507347813,0.3732790678141938,0.3867412455584904,0.39801705745254673,0.4107226670689134,0.4230543670101645,0.4376138321137031,0.4565780079302202,0.4854701180530712,0.8031443173311495,0.9869109947643979,0.42024532001854814,0.0,0.9848167539267015,50,1168,7828,772035,no_split,wide,individual,1,0.5013887882232666
1,1.0,0.4233457349312829,0.35869738927059913,0.3753374852830315,0.3894900601473766,0.4016400525632203,0.4140939899100914,0.42683731092044064,0.4427195834531431,0.4640906845195595,0.5008721834049557,0.8495962386308386,0.9827225130890053,0.42024532001854814,0.0,0.9848167539267015,50,1168,7828,772035,no_split,wide,individual,1,0.5013887882232666
0,0.0,0.5550052587455689,0.4096256734218512,0.4374395941592538,0.46179601744473026,0.48661340373450607,0.5155335059569335,0.5497905538374377,0.5926572663406959,0.6498195318613864,0.7506255241377554,1.511923660045982,0.975978835978836,0.5652193381625594,0.0,0.9721276595744681,50,1168,7840,772035,no_split,wide,individual,1,0.4934570789337158
1,1.0,0.5755426590706408,0.4214372645641541,0.45346072470396065,0.48151278432459416,0.5091460599184957,0.5394783905483025,0.5730066153971443,0.6166744180942328,0.6778506769505693,0.7779971567644328,1.5673093002994982,0.9682352941176471,0.5652193381625594,0.0,0.9721276595744681,50,1168,7840,772035,no_split,wide,individual,1,0.4934570789337158
0,0.0,0.4550856823058924,0.3724302203219001,0.3936316106133038,0.4098472334439156,0.42579660993581203,0.4422761854063231,0.4597344111946482,0.480044901992436,0.5080684326884813,0.5533269611705924,0.9490402283098733,0.9998952879581152,0.46289682007999616,0.0,0.9993193717277487,50,1168,7924,772035,no_split,wide,individual,1,0.49512386322021484
1,1.0,0.47070795785409986,0.38813625115825157,0.4104550587545661,0.42732967810639705,0.4441759557451305,0.4607958470533482,0.47792904226739574,0.4981402203963929,0.5234305020198641,0.5652777000624098,0.95483374319303,0.9987434554973822,0.46289682007999616,0.0,0.9993193717277487,50,1168,7924,772035,no_split,wide,individual,1,0.49512386322021484
0,0.0,0.4511429823475091,0.3768397051848367,0.3981910370297009,0.4139133532547589,0.42751633607310663,0.44183020978437054,0.45801484213320565,0.47567930193576013,0.49776051083894757,0.5351862478865024,1.124921045297021,0.9942857142857143,0.45905457702217994,0.0,0.9917771883289125,50,1168,7939,772035,no_split,wide,individual,1,0.499544620513916
1,1.0,0.467008254647248,0.3819370088266215,0.404164756075671,0.42198909296786263,0.4377408389525991,0.4538884930618117,0.47171118953985514,0.49421389780699493,0.5205618532843538,0.5682393681661317,1.1048516675699498,0.9892553191489362,0.45905457702217994,0.0,0.9917771883289125,50,1168,7939,772035,no_split,wide,individual,1,0.499544620513916
0,0.0,0.45959629346742203,0.3545844719106629,0.3800010195579942,0.39863608071126255,0.41789755590209793,0.43713411019034937,0.4596747313514214,0.48780948610899455,0.523824324886747,0.5954213868411996,1.4439392105283344,0.9461797752808989,0.46678395167928716,0.0,0.9303581267217631,50,1168,8026,772035,no_split,wide,individual,1,0.4962949752807617
1,1.0,0.47369964444529794,0.36641704043896445,0.3936734777923607,0.4143781699548165,0.4336576437949622,0.4555972613843995,0.4789129166657841,0.5071120477785446,0.542866058543923,0.6005678799034477,1.4226084434790098,0.9151351351351351,0.46678395167928716,0.0,0.9303581267217631,50,1168,8026,772035,no_split,wide,individual,1,0.4962949752807617
0,0.0,0.4730387004041267,0.3712019585005179,0.3960429602039282,0.4153515716428325,0.4329497057025662,0.4520697309661388,0.474794872645831,0.5013646569637085,0.5392021310109282,0.6046730041368904,1.169405481136301,0.9794736842105263,0.47677512129634564,0.0,0.9763684210526316,50,1168,808,772035,no_split,wide,individual,1,0.49886608123779297
1,1.0,0.48051154218856457,0.3814529674611366,0.40690166365406866,0.4254178415937324,0.44347163086857466,0.46144724880674526,0.483245984447253,0.5087574279248496,0.5432341322036442,0.6032860422058587,1.1732967716427019,0.9732631578947368,0.47677512129634564,0.0,0.9763684210526316,50,1168,808,772035,no_split,wide,individual,1,0.49886608123779297
0,0.0,0.44705583704054985,0.34878303772183356,0.3735852787106,0.3929837133007003,0.4103266847570988,0.4285407831020063,0.4499121766816495,0.47426835214361085,0.5091930434250693,0.5683254077318859,1.1170822197147015,0.9386387434554974,0.4534380187049129,0.0,0.9300783289817233,50,1168,8311,772035,no_split,wide,individual,1,0.5042357444763184
1,1.0,0.4597869598397741,0.35198906861054996,0.3778952576021014,0.3975189324769535,0.41687122204685206,0.4378238035240636,0.46005942536157274,0.48918641338093116,0.5293759134089898,0.5970063105868798,1.146063111211229,0.9215625,0.4534380187049129,0.0,0.9300783289817233,50,1168,8311,772035,no_split,wide,individual,1,0.5042357444763184
0,0.0,0.456694270727006,0.3770883964681026,0.3965692446015569,0.41174534208052854,0.4260778864445341,0.4407969792776258,0.45627016256191305,0.47655322207263884,0.5046048186423507,0.5562387741680913,1.049454707609265,0.9767708333333334,0.4647999093419218,0.0,0.965026455026455,50,1168,833,772035,no_split,wide,individual,1,0.5034234523773193
1,1.0,0.473167020170222,0.3838323781245482,0.4050517275312064,0.4219964003108381,0.43846287416450175,0.456231916015279,0.47578303212219736,0.4998853146446926,0.5299122800775393,0.582633566968684,1.0818649210056355,0.9529032258064516,0.4647999093419218,0.0,0.965026455026455,50,1168,833,772035,no_split,wide,individual,1,0.5034234523773193
0,0.0,0.5616428216831025,0.3948905450733748,0.42618638425634103,0.4546767854537156,0.48340423893544593,0.5151628896833481,0.5558019765713463,0.6036598108262659,0.673929252353943,0.7946210429506744,1.579564451268126,0.9261956521739131,0.5705186530613532,0.0,0.9171891891891892,50,1168,837,772035,no_split,wide,individual,1,0.5081837177276611
1,1.0,0.5792990453925257,0.4089230095499952,0.446109897705561,0.47687570559489845,0.5084015379226985,0.5409508025292759,0.5775155066774948,0.6246145680307105,0.6895380907300457,0.8011875487905195,1.5947138203910112,0.9082795698924732,0.5705186530613532,0.0,0.9171891891891892,50,1168,837,772035,no_split,wide,individual,1,0.5081837177276611
0,0.0,0.39072768322812723,0.3253664651614573,0.34319388295009534,0.3568884892654327,0.36904013089605875,0.38187620362814856,0.39506794618669505,0.41185879037202205,0.43141036106353603,0.4662330202608066,0.8906518746585155,0.988586387434555,0.3986220912490406,0.0,0.9822631578947368,50,1168,8446,772035,no_split,wide,individual,1,0.5082499980926514
1,1.0,0.40660003797916994,0.3323461377263836,0.35272739145522275,0.36784953080794275,0.38187550301469925,0.39580264994306413,0.4110267520571202,0.4292557148771306,0.4539116114627982,0.4925531660117022,0.951754628721872,0.9758730158730159,0.3986220912490406,0.0,0.9822631578947368,50,1168,8446,772035,no_split,wide,individual,1,0.5082499980926514
0,0.0,0.4258311844319609,0.3483848276353467,0.36843548775471874,0.38482957786489363,0.3987828345224913,0.41327210972180856,0.42949505978435587,0.44889375867576875,0.4736931859593919,0.5199505356447784,1.159945717859474,0.9687830687830687,0.431891341676159,0.0,0.9586702127659574,50,1168,845,772035,no_split,wide,individual,1,0.5116372108459473
1,1.0,0.4380163134363378,0.35060802610131514,0.37339762431523643,0.39162554295541757,0.40684737012229055,0.4243724734315684,0.44226788350092566,0.4640536964775615,0.4929217709337337,0.5417771041861862,1.0180208009655862,0.9484491978609626,0.431891341676159,0.0,0.9586702127659574,50,1168,845,772035,no_split,wide,individual,1,0.5116372108459473
0,0.0,0.49204873843670427,0.3961956062589486,0.4217767728422451,0.4399484063922089,0.45746863399212934,0.47459278354233764,0.4950027371766615,0.5190981627432291,0.5513181813719441,0.6087573704480136,1.2955858937655516,0.9670157068062827,0.4961638997894145,0.0,0.9607368421052631,50,1168,8521,772035,no_split,wide,individual,1,0.5082426071166992
1,1.0,0.5003226078231057,0.40113129345395226,0.4269071449000441,0.4459848942088354,0.46418227494217046,0.4824036042410489,0.5034399195593035,0.5292688922991129,0.5642578718027322,0.6218764880974784,1.2198260159052179,0.9543915343915343,0.4961638997894145,0.0,0.9607368421052631,50,1168,8521,772035,no_split,wide,individual,1,0.5082426071166992
0,0.0,0.567301320749169,0.4315063882017094,0.46045562090139647,0.48459060441683455,0.5096018120765833,0.5362992363511518,0.5672946551774908,0.6044487417695675,0.6566401331155594,0.746449346806832,1.5459364592459837,0.9827173913043479,0.5679049516968219,0.0,0.982741935483871,50,1168,8704,772035,no_split,wide,individual,1,0.5078489780426025
1,1.0,0.5684957394328226,0.44015918527355596,0.46927464468656327,0.492119883165495,0.5161628574491236,0.5394151958249764,0.5674730673582004,0.603848751496627,0.652314029993691,0.7355669801183736,1.5490743288666882,0.9827659574468085,0.5679049516968219,0.0,0.982741935483871,50,1168,8704,772035,no_split,wide,individual,1,0.5078489780426025
0,0.0,0.44332256831955624,0.36289940305652246,0.3825594050139612,0.3994124584041182,0.4139348436532572,0.4290813528717219,0.44552137995348257,0.4657927969560964,0.4924989098881292,0.5422374680286406,1.1418425635874396,0.9980434782608696,0.4516875501122917,0.0,0.9967123287671232,50,1168,8755,772035,no_split,wide,individual,1,0.5124702453613281
1,1.0,0.4601911780120891,0.36929485710475435,0.3913051778382265,0.4091160593561901,0.42588003032020166,0.44285818891303275,0.46283240992719354,0.48738917793210945,0.5204647206323895,0.5732543032828847,0.9828797623479384,0.9953591160220995,0.4516875501122917,0.0,0.9967123287671232,50,1168,8755,772035,no_split,wide,individual,1,0.5124702453613281
0,0.0,0.4528735912938353,0.363426738718378,0.3874968781656881,0.4065355299304412,0.423493029237906,0.44001181647169096,0.45818199333340465,0.4800995237051075,0.50883011126958,0.5592114910795386,1.0024805758505237,0.9675,0.45601981828118426,0.0,0.9635416666666666,50,1168,8785,772035,no_split,wide,individual,1,0.5086147785186768
1,1.0,0.4591660452685332,0.3686070026416902,0.39325066577964035,0.4115490286119852,0.42860768999249454,0.44658177704965213,0.4648717374673675,0.48698015571393893,0.5154054023551331,0.5650340123414825,1.0772477486264158,0.9595833333333333,0.45601981828118426,0.0,0.9635416666666666,50,1168,8785,772035,no_split,wide,individual,1,0.5086147785186768
0,0.0,0.41271708619139996,0.32997772776082684,0.35135069556247267,0.36813499980041703,0.38364698328475294,0.399368092179165,0.41729761947658917,0.43712231038162186,0.4638235745602883,0.5083937383989144,1.0442735509214152,0.984021164021164,0.4248675683146454,0.0,0.9730503978779841,50,1168,8788,772035,no_split,wide,individual,1,0.5097944736480713
1,1.0,0.4370826806619506,0.335913287367605,0.35917374410881564,0.37806757567350047,0.3958525857553437,0.4153166905691319,0.4379849233863788,0.46680929704853485,0.50598252038195,0.5678835725439659,1.1745779379959485,0.9620212765957447,0.4248675683146454,0.0,0.9730503978779841,50,1168,8788,772035,no_split,wide,individual,1,0.5097944736480713
0,0.0,0.4702786845260014,0.36502766550068216,0.38675841864769606,0.4055333600336876,0.42406164700743065,0.4447051303585733,0.46712610847109476,0.4965350248066843,0.5370897136295414,0.6062648652754423,1.4489199226769989,0.9751322751322752,0.48619505063719354,0.0,0.9604787234042553,50,1168,916,772035,no_split,wide,individual,1,0.5086236000061035
1,1.0,0.5022816452629438,0.37134337590522787,0.3969554815432308,0.42089537886648615,0.4440622653040514,0.4701850108735376,0.499113924547395,0.539359205368046,0.5929182018363405,0.6785837583572966,1.4234393609863898,0.945668449197861,0.48619505063719354,0.0,0.9604787234042553,50,1168,916,772035,no_split,wide,individual,1,0.5086236000061035
0,0.0,0.414897837413834,0.335886941206889,0.3542829370533681,0.3701437900764326,0.3837511934850177,0.3987385074577837,0.4150754559429821,0.4349799262168177,0.46376757033306926,0.5134178997663353,0.9834879525784428,0.9669473684210527,0.42116231841833496,0.0,0.9543307086614173,50,1168,985,772035,no_split,wide,individual,1,0.5050134658813477
1,1.0,0.4273940010929693,0.34280584573690787,0.36279963803930976,0.3790833617898235,0.3950512376726055,0.41145777176618625,0.42951874664256146,0.4518348320669917,0.4814845450601952,0.5337803340211261,1.1413176240984304,0.9417801047120419,0.42116231841833496,0.0,0.9543307086614173,50,1168,985,772035,no_split,wide,individual,1,0.5050134658813477
0,0.0,0.43605528498388,0.3557843869729914,0.3761046875466215,0.39140255642605143,0.40671798068943554,0.42159274380635753,0.43814017417577544,0.45730961098577133,0.4829713368578181,0.5305661645607362,1.2154707694313167,0.9910243902439024,0.4590331712657207,0.0,0.9731155778894472,50,1168,275,772035,no_split,narrow,individual,1,0.5103604793548584
1,1.0,0.4834397344148261,0.37284339379800513,0.3988730259257923,0.42072771510215834,0.4410056609639881,0.4638356971930426,0.49006778913504645,0.5200252720637069,0.5582859359519945,0.6205279709235763,1.1808025118998962,0.9540932642487047,0.4590331712657207,0.0,0.9731155778894472,50,1168,275,772035,no_split,narrow,individual,1,0.5103604793548584
0,0.0,0.4592868994897897,0.3764556369226962,0.39712682330705346,0.41440934952770986,0.4308324778629903,0.44601312056642484,0.4627337674319679,0.4828325842220848,0.5102901389420277,0.557269394377355,1.0795503817593481,0.9886666666666667,0.47369462018241887,0.0,0.9782323232323232,50,1168,808,772035,no_split,narrow,individual,1,0.5078601837158203
1,1.0,0.489961401609581,0.38808335258586546,0.41314190175792104,0.43306117686364687,0.452417712340296,0.47342903531089475,0.4946849976166859,0.5217288874695613,0.5574288689586077,0.6157100214025325,1.127331118775138,0.9664516129032258,0.47369462018241887,0.0,0.9782323232323232,50,1168,808,772035,no_split,narrow,individual,1,0.5078601837158203
0,0.0,0.44940285625223814,0.37873106085624536,0.3986328505975905,0.41321072233482947,0.4277564486167619,0.4414530642967194,0.4552573250926255,0.4720257093900703,0.4918383104639165,0.5272617771647755,1.010597282544657,0.9889,0.4700083122834825,0.0,0.9598933333333334,50,1168,833,772035,no_split,narrow,individual,1,0.5098443031311035
1,1.0,0.49355740489061906,0.39399762289545726,0.4182080919386011,0.4376359985183486,0.45677777407299885,0.47712125054999965,0.5001349541298248,0.527521359169027,0.5636441728888799,0.6159445405879795,1.047926146067544,0.9267428571428571,0.4700083122834825,0.0,0.9598933333333334,50,1168,833,772035,no_split,narrow,individual,1,0.5098443031311035
0,0.0,0.5739957247108222,0.39515651321930767,0.4337147937078573,0.4628652982851159,0.4937987115189499,0.5271838481359472,0.5673010083011757,0.6182341565091827,0.6889084439868844,0.8163754828415836,1.6277435848693504,0.9300523560209424,0.5886923238327364,0.0,0.9084042553191489,50,1168,837,772035,no_split,narrow,individual,1,0.510875940322876
1,1.0,0.6038655694126587,0.4149128183607875,0.45725321402145636,0.4933700904004169,0.5285361100855732,0.5643103505716484,0.6074702225252764,0.6573323022376638,0.7294520812853491,0.8439953730322018,1.5969604577954488,0.886054054054054,0.5886923238327364,0.0,0.9084042553191489,50,1168,837,772035,no_split,narrow,individual,1,0.510875940322876
0,0.0,0.4209636516858225,0.34755594856243477,0.3703437303307143,0.3856321918250867,0.39980903856988775,0.4136182952260911,0.4278246743164461,0.4444498119885787,0.4649397858618468,0.5009233060451599,0.9594481645520784,0.9805208333333333,0.4333306036820577,0.0,0.9564705882352941,50,1168,845,772035,no_split,narrow,individual,1,0.5134809017181396
1,1.0,0.446377058535229,0.35986511015473016,0.3829670207351522,0.4012685819999991,0.4177846695818167,0.4334645204766207,0.45166794758753964,0.47392964105125185,0.5024240096465539,0.549906212983513,0.9614163158549052,0.9310989010989011,0.4333306036820577,0.0,0.9564705882352941,50,1168,845,772035,no_split,narrow,individual,1,0.5134809017181396
0,0.0,0.4704976456105135,0.36162032429829616,0.38328888396408717,0.4013848186263544,0.4193152011972089,0.4386780503570278,0.4628151709512597,0.49439987311269146,0.5400088586462972,0.6209710418503357,1.30848765391837,0.981340782122905,0.49143859515496796,0.0,0.9666120218579235,50,1168,916,772035,no_split,narrow,individual,1,0.5105488300323486
1,1.0,0.5114836752001946,0.3856288098628296,0.41329456552367233,0.43777313514325056,0.4605097568396376,0.4857055492922094,0.5137400024469603,0.5479841024452704,0.5949553753800483,0.6701220639072321,1.4214244398185536,0.9525133689839572,0.49143859515496796,0.0,0.9666120218579235,50,1168,916,772035,no_split,narrow,individual,1,0.5105488300323486
0,0.0,0.4226621285935782,0.34238524495949446,0.3621456131913939,0.37780133043218384,0.39203431003313055,0.4065277385628722,0.42299121224375724,0.4441222199497166,0.47152698081214006,0.5219835112276076,1.2107006526462618,0.9566101694915254,0.4342099603635266,0.0,0.9269376693766938,50,1168,985,772035,no_split,narrow,individual,1,0.5105719566345215
1,1.0,0.44485561777644783,0.35628857109156675,0.3786742555430292,0.3960705730555091,0.41263587956764225,0.43033842867794336,0.4492691897601835,0.47199693115937247,0.5022385396300771,0.5498211950854784,1.0992170171324285,0.8995833333333333,0.4342099603635266,0.0,0.9269376693766938,50,1168,985,772035,no_split,narrow,individual,1,0.5105719566345215
0,0.0,0.4236880294518345,0.3441452773395537,0.3634915279007738,0.37805870642002676,0.3920991034872018,0.4060923905354817,0.4228540942382269,0.44294465863265925,0.47212114933384636,0.5287789122745775,1.0261310897245066,0.959659090909091,0.4381470529506771,0.0,0.9084736842105263,50,1168,1108,772035,no_split,narrow,individual,1,0.5127241611480713
1,1.0,0.4506215045967374,0.36870426498976744,0.3903289055930708,0.4070712599682144,0.42390280667521396,0.4393188033723909,0.4561427819430137,0.47548439894079414,0.5024655250550748,0.5448261345283959,1.0880811900451368,0.864313725490196,0.4381470529506771,0.0,0.9084736842105263,50,1168,1108,772035,no_split,narrow,individual,1,0.5127241611480713
0,0.0,0.4459373917388827,0.3552929781865685,0.3798091691234632,0.3981981973673402,0.41537430238007084,0.43177712028550636,0.4498498242066371,0.47131718436958825,0.5011934817490016,0.5528071250392657,1.1386999659000117,0.9550753768844221,0.4590893073640473,0.0,0.9200491400491401,50,1168,1507,772035,no_split,narrow,individual,1,0.5120992660522461
1,1.0,0.47167214971696914,0.37532703983071963,0.40155706813042374,0.422561155320903,0.4410198281470036,0.45990995671548235,0.4798331289060322,0.5028495833245791,0.5326769205422548,0.5832995476061661,1.2469351218526785,0.8865384615384615,0.4590893073640473,0.0,0.9200491400491401,50,1168,1507,772035,no_split,narrow,individual,1,0.5120992660522461
0,0.0,0.45978459941003863,0.367366772967768,0.39203295126586596,0.41107587176946797,0.4282990179143716,0.4454434314305405,0.46403187555071096,0.4868268689691234,0.5176612672659819,0.5679899795489485,1.0900375841406502,0.9726881720430107,0.46667393672634394,0.0,0.9642931937172775,50,1168,1538,772035,no_split,narrow,individual,1,0.5149438381195068
1,1.0,0.47321177724079694,0.37498100986574384,0.4006019398645051,0.4217280931989927,0.43996190337357294,0.45898484048722465,0.4791899537399352,0.5034564159766605,0.5370072214259208,0.5890719914113542,1.258270500950342,0.9563265306122449,0.46667393672634394,0.0,0.9642931937172775,50,1168,1538,772035,no_split,narrow,individual,1,0.5149438381195068
0,0.0,0.45798814305438806,0.37226502754607355,0.39525742925138513,0.41287351746190604,0.4283369874246176,0.44243321561753957,0.45866428150207267,0.47928045468294517,0.5068296750158201,0.5602498407177817,1.2793256542352098,0.9956382978723404,0.4896505508324219,0.0,0.9701639344262295,50,1168,1582,772035,no_split,narrow,individual,1,0.5087287425994873
1,1.0,0.523091745564278,0.4177133556615268,0.44590694680144677,0.468541760469235,0.4899988977188912,0.5118019081032817,0.5336849415076468,0.5583213067128233,0.5896477683978159,0.6440415232433155,1.248202657649068,0.9432584269662921,0.4896505508324219,0.0,0.9701639344262295,50,1168,1582,772035,no_split,narrow,individual,1,0.5087287425994873
0,0.0,0.4453996993998765,0.3522182453904614,0.3740507470933198,0.3906465116066354,0.40565737523944767,0.42217930895479405,0.43988580528775645,0.46283982254952094,0.5003082918983056,0.5710551024865284,1.2069901637109632,0.9841206030150754,0.474741894700774,0.0,0.934937343358396,50,1168,1583,772035,no_split,narrow,individual,1,0.5095007419586182
1,1.0,0.503937379025167,0.39547828102632515,0.42458849150525924,0.4471615538538664,0.4686937171297792,0.4892063593650202,0.5108926375762206,0.5370591389418135,0.5702950922880379,0.628891877787941,1.1603029673677197,0.886,0.474741894700774,0.0,0.934937343358396,50,1168,1583,772035,no_split,narrow,individual,1,0.5095007419586182
0,0.0,0.556866273362985,0.41043764892982826,0.4380717185723531,0.4609989273798809,0.48452928978176196,0.5123379297843722,0.5453443042880093,0.5888283473986382,0.6561051723865243,0.7669654954622033,1.5671950629287226,0.9678688524590164,0.5736920250501478,0.0,0.9475274725274725,50,1168,1597,772035,no_split,narrow,individual,1,0.506533145904541
1,1.0,0.590703696645456,0.43380631998645397,0.4684774513092392,0.4973541514270064,0.5261768881446387,0.557491943453738,0.5924862041541483,0.6339600102216578,0.6897603897518277,0.7889344171752708,1.5092408091360368,0.9269613259668509,0.5736920250501478,0.0,0.9475274725274725,50,1168,1597,772035,no_split,narrow,individual,1,0.506533145904541
0,0.0,0.42345402094699514,0.33829045808710484,0.36042217188267894,0.37820985135289564,0.39363053114104574,0.40912624175662693,0.4258772831360864,0.4462035331002259,0.4735955735711088,0.5237192288612608,1.3637439814800523,0.9851366120218579,0.4432267251316481,0.0,0.95712,50,1168,1601,772035,no_split,narrow,individual,1,0.5098178386688232
1,1.0,0.4620725838076454,0.35791127103555653,0.3847624057554042,0.4073242053093161,0.42668909431949265,0.4460381424203558,0.46877623432443516,0.4953702007504512,0.5313304473937758,0.5870968766248911,1.0649376354623743,0.9304166666666667,0.4432267251316481,0.0,0.95712,50,1168,1601,772035,no_split,narrow,individual,1,0.5098178386688232
0,0.0,0.4716745781190592,0.36594532181013756,0.39287776503814414,0.41294429369867325,0.4328831305016069,0.45155295576602494,0.4721079461120434,0.4980187968712444,0.5330745918355352,0.6002972752284015,1.388049499273246,0.9902970297029703,0.5027488552452452,0.0,0.9670967741935483,50,1168,1614,772035,no_split,narrow,individual,1,0.5058941841125488
1,1.0,0.5396724080657721,0.3999443629629211,0.434591083801525,0.46289828796122084,0.4905196617202189,0.5179713173281709,0.5507191345981984,0.5865639826928271,0.6329148354014127,0.7053787711108959,1.4344338181866716,0.9395294117647058,0.5027488552452452,0.0,0.9670967741935483,50,1168,1614,772035,no_split,narrow,individual,1,0.5058941841125488
0,0.0,0.48070104842143124,0.38308742251767924,0.41006872486585166,0.4307785572737464,0.4495962237643509,0.4673199505637434,0.4868100246522692,0.5110725948875685,0.5410357664307901,0.5936461476313645,1.2729075197790167,0.9867403314917127,0.49656413739898314,0.0,0.9670526315789474,50,1168,1638,772035,no_split,narrow,individual,1,0.506871223449707
1,1.0,0.5109923741072088,0.4116161188025591,0.4408449006009204,0.46273885217250305,0.48237493871941634,0.5016973421242565,0.5215108560910195,0.5456756328680027,0.573947073216262,0.6206252221382573,1.2823787393300803,0.9491457286432161,0.49656413739898314,0.0,0.9670526315789474,50,1168,1638,772035,no_split,narrow,individual,1,0.506871223449707
0,0.0,0.3941195498932227,0.32838810279018005,0.3463698118690525,0.3603374905058061,0.3728924009722583,0.3859215287104204,0.3989753513499755,0.4142286884875586,0.4342384409192776,0.4685142625578377,0.9255254811603787,0.9827551020408163,0.4136700060521282,0.0,0.9379514824797843,50,1168,1657,772035,no_split,narrow,individual,1,0.5081403255462646
1,1.0,0.4355665169501025,0.3424433466289451,0.36438137134567633,0.3837358401600561,0.4007112265877298,0.41900438052798394,0.4406226666966101,0.46701494153699696,0.5006968878797906,0.554042757935302,0.9374941902193393,0.8877714285714285,0.4136700060521282,0.0,0.9379514824797843,50,1168,1657,772035,no_split,narrow,individual,1,0.5081403255462646
0,0.0,0.46419004958999777,0.3808865085215247,0.4032243410623939,0.41960147166196016,0.43439525833518766,0.44956698596697076,0.4662116757660205,0.487878708925361,0.5150444113260632,0.5637339702300085,1.0539637939031434,0.988,0.4814628056781364,0.0,0.9704060913705583,50,1168,1663,772035,no_split,narrow,individual,1,0.5020976066589355
1,1.0,0.4983883706891265,0.40576553272434013,0.4307623088501179,0.4504677207357774,0.4679259863467926,0.48635757948932995,0.5062650969210041,0.5287257915195933,0.5578449324117529,0.6040811774605489,1.0574460119653277,0.9531658291457287,0.4814628056781364,0.0,0.9704060913705583,50,1168,1663,772035,no_split,narrow,individual,1,0.5020976066589355
0,0.0,0.5048795713309124,0.3961221879532317,0.42249093573554247,0.4426930457131556,0.46201063180952917,0.4820214419898717,0.5052903524038692,0.53342120749508,0.5737196747106106,0.6421055461608492,1.4284088423874173,0.9714917127071824,0.5170148178993117,0.0,0.9555801104972376,50,1168,1761,772035,no_split,narrow,individual,1,0.5038571357727051
1,1.0,0.5291500644677108,0.41252610962704495,0.4428365975817031,0.4661105992506058,0.48793472886088174,0.5101661315332155,0.5347564761166409,0.5646465544431867,0.6037055029828432,0.6686216561126678,1.3459352571832597,0.9396685082872929,0.5170148178993117,0.0,0.9555801104972376,50,1168,1761,772035,no_split,narrow,individual,1,0.5038571357727051
0,0.0,0.46091054611737065,0.3610899084300474,0.38663873945954086,0.40701167115591547,0.42583406257823525,0.44448049367143727,0.46429400832006706,0.48745363865870134,0.521738349237684,0.5768170074194701,1.3065373862223284,0.957427536231884,0.47496605147973187,740.0,0.9341216216216216,50,1168,1768,772035,no_split,narrow,individual,1,0.5058598518371582
1,1.0,0.488870422375831,0.3725781114161256,0.40079895006202776,0.4238245117650167,0.44551750417297614,0.4693129946924116,0.4938460205615092,0.525077623108417,0.5659117298790918,0.6309715559295244,1.232342330712403,0.9110663082437276,0.47496605147973187,740.0,0.9341216216216216,50,1168,1768,772035,no_split,narrow,individual,1,0.5058598518371582
0,0.0,0.3919215326361991,0.30943319569722827,0.33337968595945316,0.3510402685386982,0.36659673552814653,0.38228513256118085,0.3977885408831673,0.41685890511024215,0.44221607999460083,0.48400299139411446,0.9023225018745181,0.9477094972067039,0.40225470027986504,0.0,0.9131016042780749,50,1168,1813,772035,no_split,narrow,individual,1,0.49204516410827637
1,1.0,0.4117400182707173,0.3221152746345445,0.34709782350554924,0.3676515129525596,0.3854773151977326,0.40171425352903123,0.4199682118566012,0.4410499373844603,0.4698441950130887,0.5123807142552913,1.0149607032571577,0.8813333333333333,0.40225470027986504,0.0,0.9131016042780749,50,1168,1813,772035,no_split,narrow,individual,1,0.49204516410827637
0,0.0,0.399544400507044,0.3129607671587425,0.3330288217646961,0.3492841081606601,0.3639235900301187,0.37976551339572673,0.3977905463690587,0.4189939846330052,0.4515786302185788,0.5110477728766104,1.1206663635105383,0.9864390243902439,0.4220277092004962,0.0,0.962079207920792,50,1168,1821,772035,no_split,narrow,individual,1,0.485457181930542
1,1.0,0.4451889065982736,0.33943768468846697,0.36580176780611634,0.38832330972965595,0.40902674804244815,0.42953931219945274,0.45169695321295555,0.4790759474225901,0.5142158374933679,0.5709181240933228,1.0792113971279857,0.9369849246231156,0.4220277092004962,0.0,0.962079207920792,50,1168,1821,772035,no_split,narrow,individual,1,0.485457181930542
0,0.0,0.40298248533811115,0.3176589433298045,0.33683393633676795,0.3520024787683502,0.3665878615068805,0.3837366825116909,0.40231531800446013,0.42522423361398703,0.45908141961972304,0.5176534068036232,1.0711391917442938,0.9755801104972376,0.4109357489251274,0.0,0.9659574468085106,50,1168,3286,772035,no_split,narrow,individual,1,0.48389577865600586
1,1.0,0.4183180089725631,0.3374197894881089,0.3568985797245954,0.3731392855833512,0.38767025109755787,0.40353710443064217,0.4204448486132434,0.44068302849943297,0.4689208746785456,0.517306083679297,1.0894866363170186,0.957025641025641,0.4109357489251274,0.0,0.9659574468085106,50,1168,3286,772035,no_split,narrow,individual,1,0.48389577865600586
0,0.0,0.48570321489117607,0.3860513022937875,0.41095977142081574,0.4297724267988424,0.44815806238896244,0.46540444242008616,0.48529369489982294,0.509874497564643,0.5453021155371645,0.6066691326178916,1.4021439332254488,0.9831818181818182,0.5032935532281242,0.0,0.958956043956044,50,1168,3292,772035,no_split,narrow,individual,1,0.4791712760925293
1,1.0,0.5197611040116501,0.40723722754317765,0.4355300008495962,0.45795369917402845,0.4791470530991487,0.5015134711478868,0.5251824796652234,0.5546182938061331,0.5935184523683484,0.6558704636771018,1.4342087571773066,0.9362765957446808,0.5032935532281242,0.0,0.958956043956044,50,1168,3292,772035,no_split,narrow,individual,1,0.4791712760925293
0,0.0,0.4062289414799076,0.3305870818076736,0.3512985910075385,0.3670138460492937,0.3805336749632173,0.39402990309356584,0.40865372076427675,0.4259488620995735,0.4495655131119507,0.4947879589331321,0.9908661592791178,0.9826737967914438,0.4259556010070616,0.0,0.9340779220779221,50,1168,3487,772035,no_split,narrow,individual,1,0.48873090744018555
1,1.0,0.4445863350049292,0.36194737453137604,0.3859580680045873,0.4044445203901948,0.42038291711233405,0.43582932267281094,0.45258850560899405,0.4722816010260698,0.49718414149283413,0.5366648166346771,0.9750366156173301,0.8881818181818182,0.4259556010070616,0.0,0.9340779220779221,50,1168,3487,772035,no_split,narrow,individual,1,0.48873090744018555
0,0.0,0.4126448069347193,0.35583895982908204,0.373207060437812,0.3858655907443086,0.39709740290186046,0.4081354382799531,0.41924535024565635,0.43253579578642476,0.44796089254673455,0.4738655148159932,0.8904593879615084,0.9881592039800995,0.42548180268449676,0.0,0.9472081218274112,50,1168,3580,772035,no_split,narrow,individual,1,0.48923683166503906
1,1.0,0.43885090188504217,0.3713234809668847,0.39044604519232423,0.4055318670261812,0.419115452446855,0.4324047529035844,0.4469383637722181,0.46290327192846314,0.48321150030765925,0.514703040733788,0.8412692471471324,0.9045595854922279,0.42548180268449676,0.0,0.9472081218274112,50,1168,3580,772035,no_split,narrow,individual,1,0.48923683166503906
0,0.0,0.4877052678055922,0.3802907527089302,0.40583756240954855,0.4246257369997653,0.4428913527388527,0.462321499033577,0.4830985740068494,0.5121831524553446,0.5513951260533335,0.6244286969190626,1.4986492620321914,0.9375268817204301,0.5005780062041133,0.0,0.9058563535911602,50,1168,3625,772035,no_split,narrow,individual,1,0.4863598346710205
1,1.0,0.5141821501934596,0.39322791068289775,0.41994802280207005,0.44283406538406966,0.4659060950539413,0.4900110683756799,0.5177237899683931,0.5500875807043856,0.5947790269877471,0.6687159692271895,1.2776866559603723,0.8723863636363637,0.5005780062041133,0.0,0.9058563535911602,50,1168,3625,772035,no_split,narrow,individual,1,0.4863598346710205
0,0.0,0.5327108037412811,0.43332892635026876,0.46119809990922694,0.48258022282202223,0.5011357998180822,0.5196148516536451,0.5389838948991634,0.5622262246305758,0.5942666774629388,0.644996965944878,1.2908053305768243,0.9923595505617977,0.554395444725127,0.0,0.9797289972899729,50,1168,3754,772035,no_split,narrow,individual,1,0.48845696449279785
1,1.0,0.5746041677362504,0.45244000689093444,0.48410174304754516,0.5108539255286246,0.5343948344495705,0.5593951552361607,0.5862694058487475,0.6152231766305353,0.6557911688299959,0.7183285359109811,1.3139782593882394,0.967958115183246,0.554395444725127,0.0,0.9797289972899729,50,1168,3754,772035,no_split,narrow,individual,1,0.48845696449279785
0,0.0,0.41831366708599654,0.34436463350923885,0.3643611312841293,0.3799736335897141,0.3933495382267425,0.40668955053087585,0.42215400356706145,0.4394632644343058,0.46312837338880586,0.5060650374896798,0.9550818492521632,0.9930851063829788,0.4311926674572625,0.0,0.9812435233160621,50,1168,3910,772035,no_split,narrow,individual,1,0.48866772651672363
1,1.0,0.4434212132643232,0.36308092082271176,0.3857003561140687,0.40297064229473073,0.41920022274629876,0.43530878197176565,0.45196640540080546,0.47043217112398916,0.49482741571311484,0.5342635468779862,0.9016946419238623,0.97,0.4311926674572625,0.0,0.9812435233160621,50,1168,3910,772035,no_split,narrow,individual,1,0.48866772651672363
0,0.0,0.4124374192780775,0.34215382992246424,0.35908996475949684,0.3719328682942854,0.3835889239851375,0.39633439891033717,0.41122342076025764,0.42975757387174485,0.4569067470553334,0.5047521666893342,0.9917674867096807,0.9843093922651933,0.42091486619333335,0.0,0.9750526315789474,50,1168,4222,772035,no_split,narrow,individual,1,0.4909505844116211
1,1.0,0.4286255088649983,0.36223632525449984,0.3798760203706197,0.39343706936831613,0.405319244363809,0.41819280484093724,0.43187727951053956,0.4496339049602299,0.470865057163237,0.5058933125065204,0.9442827548128861,0.9666331658291457,0.42091486619333335,0.0,0.9750526315789474,50,1168,4222,772035,no_split,narrow,individual,1,0.4909505844116211
0,0.0,0.46943622469188295,0.36371938410326654,0.38759351594209623,0.4092390835354184,0.4272547187795072,0.4471001249022558,0.4693423861252675,0.4959452255175046,0.5323792046587659,0.6018682365657769,1.4055113324718358,0.9478787878787879,0.48544752016469117,0.0,0.9065491183879093,50,1168,4264,772035,no_split,narrow,individual,1,0.48844456672668457
1,1.0,0.5013783568662792,0.37876281604580986,0.40970246480107064,0.4348591387340274,0.45821196784520174,0.482644053698971,0.5097324551073591,0.5394652298330956,0.5801375807668419,0.6458693132925962,1.2903032532403167,0.8654271356783919,0.48544752016469117,0.0,0.9065491183879093,50,1168,4264,772035,no_split,narrow,individual,1,0.48844456672668457
0,0.0,0.4249847618804757,0.3629558694838161,0.38129894863395186,0.39488435561486573,0.4070804632383074,0.4188968059163062,0.43177923446368527,0.44647402195353003,0.46374721450085343,0.49136554807592664,0.9198953806000415,0.9958730158730159,0.4441305317652319,0.0,0.980108695652174,50,1168,5281,772035,no_split,narrow,individual,1,0.492203950881958
1,1.0,0.4643458977329354,0.3793660621738466,0.4022975125262936,0.42017897088705375,0.43732415387194296,0.45443592227640406,0.4726001604052656,0.49360453432746737,0.5209746287919024,0.5626513123286048,1.0160831968391602,0.963463687150838,0.4441305317652319,0.0,0.980108695652174,50,1168,5281,772035,no_split,narrow,individual,1,0.492203950881958
0,0.0,0.4569986938266467,0.36952026790547854,0.39142211793723725,0.4090604971299281,0.4239518837044741,0.4395303683998537,0.4577699721637154,0.4795756067981942,0.5120931479735668,0.5666988480823194,1.0105954872726297,0.9971739130434782,0.4800750207777948,0.0,0.9861081081081081,50,1168,5332,772035,no_split,narrow,individual,1,0.4907712936401367
1,1.0,0.5029032151810812,0.4105067704024815,0.43583404921292973,0.45534065017483877,0.4733094903299728,0.4915297841208296,0.5117000084964415,0.5335772568969075,0.561354278903452,0.6072046585104128,1.1473795138931857,0.9751612903225807,0.4800750207777948,0.0,0.9861081081081081,50,1168,5332,772035,no_split,narrow,individual,1,0.4907712936401367
0,0.0,0.45512350104969596,0.3735745857330802,0.398124473810444,0.4148237980093326,0.43030186655211194,0.4451509202030779,0.461568170980729,0.4795382054602374,0.5025084193393506,0.5451217640223732,1.097899836911842,0.984263959390863,0.4717978203309157,0.0,0.9631794871794872,50,1168,5575,772035,no_split,narrow,individual,1,0.4911820888519287
1,1.0,0.48881772135889656,0.3961355018731669,0.4218039697431783,0.4416227522303521,0.4602735027834794,0.47729444670795873,0.496603033599096,0.5199734937483838,0.5492953067902498,0.5959462629454575,0.9501841301651125,0.9416580310880829,0.4717978203309157,0.0,0.9631794871794872,50,1168,5575,772035,no_split,narrow,individual,1,0.4911820888519287
0,0.0,0.45860560322211086,0.36529540589783416,0.38839766555497335,0.4064358299802743,0.4235364542341106,0.44056314699829635,0.4601931024290963,0.4834554881546406,0.5179247729403029,0.5749789590359355,1.3365260340701268,0.9501554404145077,0.4683848404901909,0.0,0.9226530612244898,50,1168,5731,772035,no_split,narrow,individual,1,0.49575257301330566
1,1.0,0.4778692263833541,0.3841644964117666,0.40880754578113304,0.4280268242057974,0.44620882354932817,0.46365011240260434,0.4820813718204328,0.5053729593868339,0.5359606575412708,0.5896398287644852,1.0681277178791662,0.8959798994974875,0.4683848404901909,0.0,0.9226530612244898,50,1168,5731,772035,no_split,narrow,individual,1,0.49575257301330566
0,0.0,0.4418823121931338,0.3676472967699366,0.3906718981033238,0.40628302469796873,0.4206425811202714,0.43470670485867346,0.449004915561332,0.46555588199088865,0.4869269009657733,0.5216691266715788,0.9169772086494066,0.9943478260869565,0.4662464939393649,0.0,0.9543324250681199,50,1168,5761,772035,no_split,narrow,individual,1,0.49468302726745605
1,1.0,0.4907438132907666,0.40388441179814716,0.42977101210723634,0.450144850524613,0.4682981267878163,0.4851884613598916,0.5024609096973183,0.5210121566086703,0.5474638319300938,0.5858630550207514,0.9034580197823598,0.9140983606557377,0.4662464939393649,0.0,0.9543324250681199,50,1168,5761,772035,no_split,narrow,individual,1,0.49468302726745605
0,0.0,0.4607420103759055,0.34139591441019074,0.36794342431198473,0.38940765227849317,0.41144733442969617,0.4347102547014665,0.4606938000549005,0.4922706013572232,0.5429187398170486,0.6183304134361624,1.263959331666981,0.9033333333333333,0.4600308930961609,0.0,0.8925745257452574,50,1168,5803,772035,no_split,narrow,individual,1,0.4974184036254883
1,1.0,0.4594365264145833,0.35544935922077,0.38130845317493167,0.40232302220806765,0.42102931925237336,0.4404772447786308,0.46103738162347857,0.4875668606392103,0.5239082982328644,0.5875268855714788,1.4965446572596823,0.8835820895522388,0.4600308930961609,0.0,0.8925745257452574,50,1168,5803,772035,no_split,narrow,individual,1,0.4974184036254883
0,0.0,0.49718110322495035,0.3780757217298543,0.40928882724020643,0.4332586987993578,0.4553804447032591,0.4769173161272669,0.49948421584799135,0.528734622830961,0.5687093113993333,0.6394304658399372,1.3405365525184005,0.9728358208955223,0.5223604504244874,0.0,0.928062015503876,50,1168,5815,772035,no_split,narrow,individual,1,0.49311089515686035
1,1.0,0.5495703901401163,0.4158071861689875,0.45207946973932345,0.4813071150881514,0.5061844965597704,0.5325280577317528,0.5615718417251426,0.5945420103157241,0.6350616538349768,0.7035751246873829,1.4633647528303841,0.8796774193548387,0.5223604504244874,0.0,0.928062015503876,50,1168,5815,772035,no_split,narrow,individual,1,0.49311089515686035
0,0.0,0.4260282695204285,0.3560762042902811,0.37369097706631754,0.38627180662537286,0.3979846375276259,0.41068451408907813,0.42516489265658947,0.44208498032888166,0.46679228256211264,0.5117221885376727,1.0117400867471362,0.9923595505617977,0.44862537325106255,0.0,0.9724795640326975,50,1168,6055,772035,no_split,narrow,individual,1,0.49637651443481445
1,1.0,0.4699073016322945,0.3827715312720116,0.4040592021577932,0.4225165281590855,0.43908992111344236,0.45622463892735343,0.4759040275727657,0.4995599227468418,0.5275261486496079,0.5717226009943606,1.2561659229357782,0.9537566137566138,0.44862537325106255,0.0,0.9724795640326975,50,1168,6055,772035,no_split,narrow,individual,1,0.49637651443481445
0,0.0,0.4690926488218315,0.36121372225190823,0.3861843061775745,0.40567100904077685,0.4241112345134728,0.4429964537245046,0.46508472703097653,0.49560060874123557,0.5353935842462412,0.6091413207009104,1.2898978589742998,0.9625510204081633,0.4843170477323274,0.0,0.9405464480874317,50,1168,6109,772035,no_split,narrow,individual,1,0.49666357040405273
1,1.0,0.5018698841232523,0.38220229012750523,0.4087014224731429,0.43160410060320975,0.45403336593619426,0.4780052223936053,0.5061912777305115,0.5373346553161953,0.5829339534755156,0.6548187086249074,1.3937822083255298,0.9151764705882353,0.4843170477323274,0.0,0.9405464480874317,50,1168,6109,772035,no_split,narrow,individual,1,0.49666357040405273
0,0.0,0.39723677938199836,0.3332482669841507,0.3508323722246173,0.36388568368337476,0.375380718140616,0.38658305954890915,0.3982442401461287,0.41292324498674715,0.4328361428931928,0.47045275928674873,0.9172675685274257,0.9921698113207548,0.423675606839628,0.0,0.9435971223021583,50,1168,6214,772035,no_split,narrow,individual,1,0.4981410503387451
1,1.0,0.451017223527518,0.3689745111527041,0.3916839275960905,0.4096392737136082,0.42599023858043245,0.44252999344202915,0.45924938383826297,0.479632561756075,0.5035570458013694,0.5410106898895171,0.9124912109233159,0.8933658536585366,0.423675606839628,0.0,0.9435971223021583,50,1168,6214,772035,no_split,narrow,individual,1,0.4981410503387451
0,0.0,0.4651164050449426,0.36928106349540923,0.3946591586674568,0.41414291805547643,0.432043778763338,0.4504913600758161,0.4702317690712507,0.49215320223813946,0.5257104777333991,0.5773267072593083,1.0627271523786572,0.9431914893617022,0.4713453351415205,0.0,0.9251458885941645,50,1168,6253,772035,no_split,narrow,individual,1,0.49906039237976074
1,1.0,0.4775413079359999,0.37532835365758926,0.40201808782117554,0.42162710319824664,0.4406544766627329,0.46001799443966396,0.48209406906174784,0.5071643048810606,0.5438399397006254,0.6011522282590014,1.117512940534183,0.9071957671957672,0.4713453351415205,0.0,0.9251458885941645,50,1168,6253,772035,no_split,narrow,individual,1,0.49906039237976074
0,0.0,0.4704318271966363,0.3853000463031406,0.4106025604374862,0.42860553053500033,0.44490724691834904,0.4603366881838211,0.4779555246731319,0.49731804176275674,0.5239083277213767,0.5651239957592403,0.9529537210808644,0.978232044198895,0.4834805617982313,0.0,0.9453804347826087,50,1168,6262,772035,no_split,narrow,individual,1,0.4986453056335449
1,1.0,0.49611062042330456,0.4031208309886488,0.43151261605743324,0.4523970727805437,0.469899785447192,0.48863112544547577,0.5081044887847329,0.5284817315786746,0.5550364999614086,0.5971987298128586,1.0666042711852393,0.9135828877005348,0.4834805617982313,0.0,0.9453804347826087,50,1168,6262,772035,no_split,narrow,individual,1,0.4986453056335449
0,0.0,0.49705656037050805,0.40964269195703285,0.4327977272142043,0.4498824932812708,0.46516566686094263,0.4811717698590725,0.4992377439801901,0.5217539890375195,0.5529338894689807,0.6010731838782664,1.2584186369935397,0.9948663101604278,0.5155120712209365,0.0,0.9823369565217391,50,1168,6361,772035,no_split,narrow,individual,1,0.49332761764526367
1,1.0,0.5345793669614344,0.43540209251793216,0.46183795981933556,0.4825088915097668,0.5015722006661033,0.521580838250137,0.5413423144349538,0.5658369051732753,0.5986401805533129,0.6499423372285095,1.3330393157490177,0.9693922651933702,0.5155120712209365,0.0,0.9823369565217391,50,1168,6361,772035,no_split,narrow,individual,1,0.49332761764526367
0,0.0,0.4279519494955033,0.3502258776880583,0.3725482804869986,0.3889712650342553,0.404311467086079,0.4183855301079594,0.4338374742976083,0.4512731425599317,0.4758214104967816,0.515966100799256,0.8781441185216793,0.9754098360655737,0.4372918536377515,0.0,0.9578947368421052,50,1168,6427,772035,no_split,narrow,individual,1,0.50360107421875
1,1.0,0.44596800824704796,0.3693577540223455,0.39130592114943435,0.4087748360156632,0.42402905414090886,0.43865227891936875,0.4536560106991045,0.4726115682710363,0.49569285225312926,0.529476375086016,0.8247061759204348,0.9416243654822335,0.4372918536377515,0.0,0.9578947368421052,50,1168,6427,772035,no_split,narrow,individual,1,0.50360107421875
0,0.0,0.467688828430124,0.3843402187767878,0.4038958643923835,0.4189648846604706,0.43420311054841076,0.4499425032001847,0.4676802300380522,0.488328994210715,0.5187226248244191,0.5750772168358629,1.0525867576167562,0.9780104712041885,0.47622484956490346,0.0,0.9681794195250659,50,1168,6583,772035,no_split,narrow,individual,1,0.5083980560302734
1,1.0,0.48489708380289737,0.4017380240566083,0.42148473093511263,0.43823712571357304,0.45332042307861736,0.47017432089607875,0.48824139156978713,0.508554470072003,0.5381092479942581,0.5872606051286184,1.033351473428406,0.9581914893617022,0.47622484956490346,0.0,0.9681794195250659,50,1168,6583,772035,no_split,narrow,individual,1,0.5083980560302734
0,0.0,0.4437425830117964,0.3613165731393532,0.38464470465455497,0.40100342364641356,0.4175433633762049,0.4325444607239717,0.4493790041369092,0.4681309906214399,0.4927629117033947,0.5369889391437193,1.029016838942413,0.9856410256410256,0.4654092696029198,0.0,0.9527179487179487,50,1168,6634,772035,no_split,narrow,individual,1,0.5035135746002197
1,1.0,0.487075956194043,0.38738506294525027,0.41533097919162953,0.4374663821180686,0.45724402426576455,0.4767310293077812,0.4960052463861082,0.5209519577282856,0.5524624536075542,0.5992142434088946,1.2314841693949847,0.9197948717948718,0.4654092696029198,0.0,0.9527179487179487,50,1168,6634,772035,no_split,narrow,individual,1,0.5035135746002197
0,0.0,0.4566236255684493,0.38133799190547785,0.40305361065129586,0.41907451091006037,0.4328573721023439,0.4464578691024971,0.4608321082236495,0.47687806688377016,0.49800559657036036,0.5375137316961449,0.997684910167223,0.9925263157894737,0.4869723102154627,0.0,0.9480533333333333,50,1168,6844,772035,no_split,narrow,individual,1,0.43458032608032227
1,1.0,0.5181412295826656,0.4187923293303829,0.4471466467901533,0.4684965078909219,0.4885686802666431,0.5072362466238297,0.5293002689401728,0.5536077415493761,0.583105795525895,0.6299400732215716,1.0886794357928817,0.9023783783783784,0.4869723102154627,0.0,0.9480533333333333,50,1168,6844,772035,no_split,narrow,individual,1,0.43458032608032227
0,0.0,0.44789498891347507,0.36020169647174205,0.3842656081893543,0.40252958540461653,0.41964361451126914,0.43557741800831656,0.45213604429245485,0.47128068906922915,0.4995780397846049,0.5468276352536718,1.212002058148069,0.9765027322404372,0.4666920110471205,0.0,0.9366212534059946,50,1168,7624,772035,no_split,narrow,individual,1,0.3892707824707031
1,1.0,0.4853868754517788,0.38571322148973425,0.4142281873440334,0.4355786933685136,0.45480655529312686,0.4741323559523487,0.4948672755771385,0.5196333687170736,0.5489553759789284,0.5971222269479252,1.1410246422829229,0.8969565217391304,0.4666920110471205,0.0,0.9366212534059946,50,1168,7624,772035,no_split,narrow,individual,1,0.3892707824707031
0,0.0,0.41694977920313187,0.3469520989386032,0.36458863234542516,0.3778020055068487,0.38972700004391686,0.4028161562477115,0.41661020349127775,0.43320067117064576,0.45833663144035147,0.5032032362047807,0.9915739838449739,0.9741176470588235,0.43473601096421627,0.0,0.9234464751958225,50,1168,7756,772035,no_split,narrow,individual,1,0.3927764892578125
1,1.0,0.4517055280015774,0.37074796536829074,0.3926284984512164,0.4098969597758153,0.4246883794083007,0.44091795430137104,0.4580168557313005,0.4772633135987422,0.5033041463387826,0.546008646943076,1.0348511238374294,0.8751020408163265,0.43473601096421627,0.0,0.9234464751958225,50,1168,7756,772035,no_split,narrow,individual,1,0.3927764892578125
0,0.0,0.4338642970442615,0.34052182454073093,0.36738073732027665,0.3865059575735557,0.40413634031552237,0.4224287571958114,0.44097077034168186,0.46324593723879776,0.4920442943510929,0.5389861431635681,1.0233739162366187,0.9842708333333333,0.44684963567957625,0.0,0.9690374331550802,50,1168,7768,772035,no_split,narrow,individual,1,0.39618659019470215
1,1.0,0.46054845445968856,0.35804959059242697,0.3858585363778625,0.40701686166374185,0.4271915309955792,0.4476118872612934,0.46874610068013817,0.4958773567833241,0.5283481481752794,0.5812712718417777,1.2853411837377557,0.952967032967033,0.44684963567957625,0.0,0.9690374331550802,50,1168,7768,772035,no_split,narrow,individual,1,0.39618659019470215
0,0.0,0.4087117483804949,0.3211880277468327,0.3425341978283387,0.35945056004040843,0.3744277816448023,0.39092896418966755,0.4088113663853215,0.43085368530518015,0.46094074665844753,0.5127293956784692,1.2575939477962266,0.9727272727272728,0.43175805113154153,0.0,0.9220967741935484,50,1168,7807,772035,no_split,narrow,individual,1,0.3915884494781494
1,1.0,0.4550535031015184,0.34899400689781435,0.3755108231112883,0.3977454606330365,0.4171586139994641,0.4386657315492086,0.46230954009507824,0.48993108817509706,0.527866334991141,0.5811073832522435,1.4401380962075847,0.8709189189189189,0.43175805113154153,0.0,0.9220967741935484,50,1168,7807,772035,no_split,narrow,individual,1,0.3915884494781494
0,0.0,0.3992215644162017,0.32629989651082836,0.3449200922330297,0.3593723856140655,0.37168243463031303,0.3848766392149293,0.3987887239064423,0.417054129710579,0.44220038761497527,0.4893841146386446,1.000075993128627,0.9867032967032967,0.41732379226768196,0.0,0.9586703601108033,50,1168,7813,772035,no_split,narrow,individual,1,0.39315223693847656
1,1.0,0.4357294094127624,0.3517077211639941,0.3740190294082994,0.39073719920328265,0.4070905620866967,0.4235415738874839,0.4417299152544511,0.46265289883240956,0.4899737739570872,0.5347546104861692,0.8791118123939281,0.9301675977653632,0.41732379226768196,0.0,0.9586703601108033,50,1168,7813,772035,no_split,narrow,individual,1,0.39315223693847656
0,0.0,0.42558533670809023,0.35959315267805125,0.37896623051249284,0.39220297812522065,0.4043645955124814,0.41645954339906155,0.42977608883711393,0.4447375836749097,0.46530800823235746,0.5000398138368537,0.9579176018865082,0.9909574468085106,0.4434322813656443,0.0,0.956039603960396,50,1168,7828,772035,no_split,narrow,individual,1,0.39522790908813477
1,1.0,0.45896573319721906,0.38946711781397936,0.41063912794506896,0.4261728964615531,0.44072665461405564,0.4535758069617272,0.4676433881309693,0.48380323705436795,0.5036827482347601,0.5342115929399189,0.8873840348279268,0.9256481481481481,0.4434322813656443,0.0,0.956039603960396,50,1168,7828,772035,no_split,narrow,individual,1,0.39522790908813477
0,0.0,0.5465475467495026,0.4034861690792354,0.4332824167197326,0.4572843495406553,0.4810013959668059,0.5066821605142715,0.5380684476088423,0.5792190885706648,0.6417679126818979,0.7428819554986902,1.4975253184380737,0.9808465608465609,0.5674061069344741,0.0,0.9661498708010335,50,1168,7840,772035,no_split,narrow,individual,1,0.38965797424316406
1,1.0,0.5873165507474015,0.43901295868142814,0.47298259997573283,0.5014606860075175,0.5276594223734695,0.5573726556339778,0.5893913223039097,0.6288985350773595,0.6828653243183955,0.7741316757510485,1.5614525841389701,0.9521212121212121,0.5674061069344741,0.0,0.9661498708010335,50,1168,7840,772035,no_split,narrow,individual,1,0.38965797424316406
0,0.0,0.47827789422703576,0.3962617628389603,0.4174132090444706,0.4342072473094664,0.44840728039510713,0.4641190280598092,0.4801636654293385,0.4994867838712751,0.5297885428220586,0.5790949873691997,0.9602103066093539,0.9993333333333333,0.5015996454490949,0.0,0.9959466666666666,50,1168,7924,772035,no_split,narrow,individual,1,0.39285707473754883
1,1.0,0.5231274158079188,0.43588226558419685,0.4601542301089068,0.4785990086261273,0.4962388811100446,0.5137155269574571,0.5321593271593705,0.5521422271984989,0.580411501706791,0.6221696893823215,1.051332605734079,0.9928205128205129,0.5015996454490949,0.0,0.9959466666666666,50,1168,7924,772035,no_split,narrow,individual,1,0.39285707473754883
0,0.0,0.47019092630778897,0.37993986927606904,0.40258199337216316,0.4201244261910481,0.4368718489140028,0.4538155615502608,0.47291685299497976,0.4952706065476427,0.5265355719267021,0.5835048105563577,1.0432386818514323,0.9871578947368421,0.4837335908480257,0.0,0.9725063291139241,50,1168,7939,772035,no_split,narrow,individual,1,0.39178037643432617
1,1.0,0.4962853287145867,0.4040289087582483,0.42886811574378625,0.4476497564739668,0.4656511696879405,0.4835559848404505,0.5026325611807264,0.5252173670257329,0.5550508057606636,0.6030274368623971,1.1008968497776246,0.9589268292682926,0.4837335908480257,0.0,0.9725063291139241,50,1168,7939,772035,no_split,narrow,individual,1,0.39178037643432617
0,0.0,0.46619438722048956,0.37671336389905163,0.3975526574596977,0.4132760154864883,0.4276327454164655,0.44458912319938476,0.463474652718609,0.48834655564302054,0.5225922863399627,0.5797996362732372,1.2091090593296192,0.954060606060606,0.4754486014022751,0.0,0.9281920903954802,50,1168,8026,772035,no_split,narrow,individual,1,0.39649033546447754
1,1.0,0.4835276772752624,0.3942520113875552,0.41608942590859255,0.43394739831880325,0.4506522457785162,0.46648414593930576,0.4852585302284396,0.5088370192217329,0.5379516950736214,0.5918189952022374,1.1642225966469517,0.9056084656084656,0.4754486014022751,0.0,0.9281920903954802,50,1168,8026,772035,no_split,narrow,individual,1,0.39649033546447754
0,0.0,0.447247612345886,0.3481301257550144,0.3737213446760919,0.3925963512590633,0.41072140118844574,0.42855488394909036,0.4487849559550327,0.4727839173531542,0.5068075239193232,0.569265049946481,1.2025391288143434,0.9396791443850268,0.45983928334406177,0.0,0.8997808219178082,50,1168,8311,772035,no_split,narrow,individual,1,0.39557790756225586
1,1.0,0.4730676118646171,0.3606346994708334,0.3884438669517613,0.410592702208485,0.4322147203950731,0.454411055605476,0.4777831560297904,0.5069655113644931,0.5464720369339467,0.6087166871662346,1.2433362055547887,0.8578651685393258,0.45983928334406177,0.0,0.8997808219178082,50,1168,8311,772035,no_split,narrow,individual,1,0.39557790756225586
0,0.0,0.3838511562658384,0.32054244530772336,0.3403390475660065,0.3550731027592509,0.3672095275144524,0.3788882735820221,0.39155968071049263,0.40559688371049646,0.4217349279298267,0.4494886360777384,0.877087156274359,0.994300518134715,0.41070647165475577,0.0,0.931869918699187,50,1168,8446,772035,no_split,narrow,individual,1,0.39365267753601074
1,1.0,0.4401557663710116,0.3519940832964969,0.37711865491021224,0.3974613101456561,0.4152058969231602,0.43177770198810406,0.4500663276611787,0.47149414016673213,0.4986128601906242,0.5389932059161087,0.9710210195010481,0.8634090909090909,0.41070647165475577,0.0,0.931869918699187,50,1168,8446,772035,no_split,narrow,individual,1,0.39365267753601074
0,0.0,0.48118125417830837,0.4024129272849045,0.4231915839142729,0.43943163581493316,0.45398288905889317,0.46897049207232616,0.4855924593942313,0.5044069464162904,0.5278036475311948,0.5728184896867358,1.4864797861889696,0.986532663316583,0.49630480334959626,0.0,0.968935064935065,50,1168,8521,772035,no_split,narrow,individual,1,0.39110231399536133
1,1.0,0.5124853747747913,0.4175777589379825,0.4420322769423466,0.4609429255815202,0.4789866207204895,0.4974796934256497,0.5190645537439222,0.5436492891146334,0.5759516781994769,0.6269894813523559,1.0838812414692267,0.9501075268817204,0.49630480334959626,0.0,0.968935064935065,50,1168,8521,772035,no_split,narrow,individual,1,0.39110231399536133
0,0.0,0.5408385092307795,0.42949395651666905,0.4591546662954176,0.48207753099701245,0.5029209945939775,0.5227361202133103,0.5454476672953641,0.5719797085221621,0.6071621802465729,0.669749115763927,1.3776013008117367,0.9901639344262295,0.5589708246149211,0.0,0.9830372492836676,50,1168,8704,772035,no_split,narrow,individual,1,0.3956747055053711
1,1.0,0.5789600638637037,0.4478117087225487,0.48155013584263945,0.5085349686228009,0.5333942526504516,0.5589308769002725,0.5884371689856368,0.6224060640415265,0.6665033587179697,0.7339130662707306,1.2281905981887828,0.9751807228915662,0.5589708246149211,0.0,0.9830372492836676,50,1168,8704,772035,no_split,narrow,individual,1,0.3956747055053711
0,0.0,0.4377671249024721,0.3627522386259783,0.3827378478672593,0.3973617547546935,0.4111923863069891,0.42566042240710333,0.44080039816979383,0.4585845397693766,0.4830832200774554,0.5250775613773362,1.310348353464078,0.9954589371980677,0.45894011620676495,0.0,0.9868041237113402,50,1168,8755,772035,no_split,narrow,individual,1,0.39703941345214844
1,1.0,0.4831545316763154,0.37762921864665494,0.40186794610513915,0.4221311449629654,0.44108697935443564,0.4629955586239862,0.4883735737253295,0.5184117908083188,0.5566348615302789,0.6181844756978148,1.1390820823233687,0.9769060773480663,0.45894011620676495,0.0,0.9868041237113402,50,1168,8755,772035,no_split,narrow,individual,1,0.39703941345214844
0,0.0,0.4599537529271155,0.36676619535094007,0.3923037953602183,0.4115374303635248,0.42943337274743854,0.44651134407619253,0.46510464567383386,0.4869470414167968,0.517386496068825,0.5700086189978045,1.069433204786816,0.9820192307692308,0.47431568885717096,0.0,0.95865,50,1168,8785,772035,no_split,narrow,individual,1,0.3907005786895752
1,1.0,0.48987445278139774,0.3939889557433142,0.42040440615663754,0.4414399139401645,0.4612116192558031,0.4803765267194291,0.49944347120937876,0.5214924537331236,0.5506562817430721,0.5959959117701326,1.2729568560561388,0.9333333333333333,0.47431568885717096,0.0,0.95865,50,1168,8785,772035,no_split,narrow,individual,1,0.3907005786895752
0,0.0,0.41358029736528684,0.33120295937633504,0.34939264553946037,0.3645639209457348,0.37842201413032245,0.393337089893458,0.4101530106642491,0.4312543942597339,0.4611688994771515,0.5212286521266745,1.2847541158547446,0.9607446808510638,0.43353302880104855,0.0,0.9016452442159383,50,1168,8788,772035,no_split,narrow,individual,1,0.39255452156066895
1,1.0,0.4521952850693231,0.35394982926068835,0.37848912128799145,0.3987706826885329,0.41749018460789616,0.4367857985999858,0.4575746615834891,0.48192207876848175,0.5159224836667394,0.5682217329581633,1.1178665948201,0.8463681592039801,0.43353302880104855,0.0,0.9016452442159383,50,1168,8788,772035,no_split,narrow,individual,1,0.39255452156066895
0,0.0,0.4378684472648218,0.3819065249819651,0.39708376813148605,0.40856285758766836,0.41923146759680496,0.42956101907821886,0.4409650164211637,0.45374218601578226,0.47128725799093923,0.5015557283660543,0.8477275154749158,0.9915555555555555,0.4563308818330931,0.0,0.9627868852459016,50,1168,161753,772035,no_split,narrow,individual,1,0.4069328308105469
1,1.0,0.47419775399593644,0.4071543543031009,0.4260884328654545,0.4413746521159349,0.45484225031570813,0.4680180763801866,0.4814024877427696,0.497115528802898,0.5170246086574171,0.5484386694325603,0.8532247904848606,0.9349462365591398,0.4563308818330931,0.0,0.9627868852459016,50,1168,161753,772035,no_split,narrow,individual,1,0.4069328308105469
0,0.0,0.44079508324863026,0.3735105765962035,0.3919191484121396,0.4062556823273076,0.419220781720785,0.4323034755566707,0.4462810798773936,0.46254888896561713,0.4824062905601487,0.5159417504022041,0.9897152364959806,0.9984536082474227,0.4643161780605583,0.0,0.9897872340425532,50,1168,337788,772035,no_split,narrow,individual,1,0.3966643810272217
1,1.0,0.4893881142886576,0.3925493359747788,0.41539059760128716,0.4358862161777386,0.4540778199385563,0.47444166167111773,0.49606639950962894,0.5236133542420224,0.5558799271806363,0.6095493119674117,1.0911855467876561,0.9805494505494505,0.4643161780605583,0.0,0.9897872340425532,50,1168,337788,772035,no_split,narrow,individual,1,0.3966643810272217
