,congruency,mean_rt,qu10_rt,qu20_rt,qu30_rt,qu40_rt,qu50_rt,qu60_rt,qu70_rt,qu80_rt,qu90_rt,qu100_rt,mean_acc,mean_rt_overall,nonconvergent_trials,accuracy_overall,n_posterior_draws,condition,id,slurm_id,split,spacing,estimation_level,number_parts,time_post_sampling_sec
0,0.0,0.41652316080886254,0.3248209938765502,0.3425928696864424,0.3600642119150127,0.37688742671014597,0.39590994033265237,0.4163021345464071,0.44209737061175114,0.4782720542748805,0.5344038113442072,1.0821728856004922,0.9833684210526316,0.4231569675479324,0.0,0.9788888888888889,50,1162,1108,772034,no_split,wide,individual,1,0.4685680866241455
1,1.0,0.42986134669912013,0.3305156689015904,0.354006993486716,0.3729869196902341,0.39304132454369406,0.4128161530750226,0.43396564440384017,0.46117288560049224,0.4951798933603852,0.5511755710125761,1.1823678947942409,0.9743617021276596,0.4231569675479324,0.0,0.9788888888888889,50,1162,1108,772034,no_split,wide,individual,1,0.4685680866241455
0,0.0,0.42942410446362045,0.3272010426175916,0.35100698747844933,0.3709131189129571,0.38986397302218734,0.4100011546306211,0.4330476765396006,0.45976587597491536,0.49488546146712326,0.5528895620822095,1.068038762124964,0.9888888888888889,0.44270617993006434,0.0,0.9855263157894737,50,1162,1507,772034,no_split,wide,individual,1,0.4862809181213379
1,1.0,0.45584917607225234,0.3319678640679401,0.36021679764490583,0.3848996502763318,0.4088720642518702,0.43370307701448035,0.4630249923287005,0.4984594130879916,0.541384207264432,0.6058782031138906,1.2209334528720754,0.9821989528795811,0.44270617993006434,0.0,0.9855263157894737,50,1162,1507,772034,no_split,wide,individual,1,0.4862809181213379
0,0.0,0.44557458090346613,0.3451798415945371,0.36792652901413725,0.3878679351791162,0.4070862115424028,0.42740148426549096,0.449320654731088,0.47575357629257403,0.5108450590383449,0.5672465677513914,1.154092860422598,0.988,0.45393115142425633,0.0,0.9866666666666667,50,1162,1538,772034,no_split,wide,individual,1,0.48331737518310547
1,1.0,0.4622439702669272,0.3506113781600425,0.3766089299008224,0.39945955628197816,0.4225217817884499,0.44348959626729995,0.46926997535400833,0.49909157386523034,0.5358188195094578,0.5959280537277033,1.2754329714642472,0.9853403141361257,0.45393115142425633,0.0,0.9866666666666667,50,1162,1538,772034,no_split,wide,individual,1,0.48331737518310547
0,0.0,0.4621095182879173,0.359692573081729,0.3828349380207533,0.4040732507433759,0.42432862943034017,0.44483976746366327,0.46728589042291474,0.49482978991855403,0.5312957887396716,0.5875436965692551,1.0031638909447287,0.9939130434782608,0.465513863176284,0.0,0.9911891891891892,50,1162,1582,772034,no_split,wide,individual,1,0.4823610782623291
1,1.0,0.4688816022056359,0.36403762784917193,0.38929657250076977,0.4118406610772215,0.43183753342976794,0.4523138915844461,0.47541190121569654,0.5024156988853461,0.5383420307740869,0.5914111249596483,1.2013144158984015,0.988494623655914,0.465513863176284,0.0,0.9911891891891892,50,1162,1582,772034,no_split,wide,individual,1,0.4823610782623291
0,0.0,0.42981307439211414,0.3304054188354148,0.35144552586724775,0.3706014159340551,0.389190074972925,0.40918276391513203,0.4316322372496758,0.45926570139549105,0.49486133805302823,0.5549084424072376,1.280176987215391,0.988586387434555,0.4429114498517673,0.0,0.9853263707571801,50,1162,1583,772034,no_split,wide,individual,1,0.47884082794189453
1,1.0,0.45594160460590133,0.3347694477105077,0.3631700808865034,0.38753934286310665,0.41225748871977086,0.43726201193583647,0.46561394838462583,0.49826847866458707,0.5364068931859417,0.5985964857039666,1.2479899355396584,0.9820833333333333,0.4429114498517673,0.0,0.9853263707571801,50,1162,1583,772034,no_split,wide,individual,1,0.47884082794189453
0,0.0,0.5439885915755466,0.36230193037326114,0.40471496770783005,0.4401746943746938,0.47607586300473986,0.5125423401308342,0.5527194456374551,0.5998552680288545,0.6612653622230248,0.764979838193325,1.4722482577042215,0.9925423728813559,0.5531000381515694,0.0,0.9891208791208791,50,1162,1597,772034,no_split,wide,individual,1,0.4772465229034424
1,1.0,0.5617242415951846,0.36754132136804907,0.4134752389833037,0.4532881485815978,0.49276036184043187,0.53497439979196,0.5763183661481289,0.6259996878415479,0.690856981548307,0.7901038057436334,1.4395263408098102,0.9858823529411764,0.5531000381515694,0.0,0.9891208791208791,50,1162,1597,772034,no_split,wide,individual,1,0.4772465229034424
0,0.0,0.39990874331400555,0.31757412860438394,0.3388387755184763,0.3567736218723132,0.37344250540766916,0.3895504562089695,0.40754515367044825,0.4285504562089695,0.45405991251122724,0.49453040325934255,0.8685527163249153,0.996421052631579,0.41084683274602884,0.0,0.9963060686015831,50,1162,1601,772034,no_split,wide,individual,1,0.47378015518188477
1,1.0,0.4218427956671105,0.31931805653885803,0.34451434164450195,0.3649123009785094,0.38493182989849994,0.40515918634094406,0.42971155379455594,0.4570030138360065,0.4922931206463817,0.5458262812135004,0.9173541640952466,0.9961904761904762,0.41084683274602884,0.0,0.9963060686015831,50,1162,1601,772034,no_split,wide,individual,1,0.47378015518188477
0,0.0,0.4780944440940838,0.33785362083534287,0.36744496471061433,0.39366208836331495,0.4203356204108193,0.4469378737924382,0.4780675577729512,0.5149434912095218,0.5713318830870692,0.6545832760739168,1.4635878408661889,0.9807368421052631,0.4864238125151364,0.0,0.978,50,1162,1614,772034,no_split,wide,individual,1,0.4663524627685547
1,1.0,0.49475318093618903,0.3413630025452797,0.37545161587005677,0.4050156196100302,0.4352752806981472,0.4669893940785156,0.5011669041742307,0.543362033075229,0.5971193799224194,0.6803709377819315,1.3593620259320351,0.9752631578947368,0.4864238125151364,0.0,0.978,50,1162,1614,772034,no_split,wide,individual,1,0.4663524627685547
0,0.0,0.4215217129360125,0.359447137874588,0.37550376569938554,0.38929959621710014,0.4018666799495614,0.4149678260033576,0.4282805921703099,0.4441435242890373,0.46308684590028937,0.49098467130175916,0.7654332065199422,0.9983157894736842,0.4276749434927192,0.0,0.9980577427821522,50,1162,161753,772034,no_split,wide,individual,1,0.4713904857635498
1,1.0,0.4337959581826369,0.36040991148607743,0.37898049517442484,0.39486277033385264,0.40993497388357863,0.4247214465306039,0.4417399546940551,0.45998049517442485,0.4834227067415618,0.5172002642431938,0.8272655307459502,0.9978010471204188,0.4276749434927192,0.0,0.9980577427821522,50,1162,161753,772034,no_split,wide,individual,1,0.4713904857635498
0,0.0,0.461301726173268,0.3501354206398719,0.3760225176748857,0.3976726122522994,0.4194312382223003,0.4415156067745888,0.4666661503146547,0.49647140997874933,0.5353564328464261,0.5974195694449733,1.1280148817462774,0.9934042553191489,0.4678559935622536,0.0,0.9922955145118734,50,1162,1638,772034,no_split,wide,individual,1,0.46094465255737305
1,1.0,0.4743073143430352,0.355554641342786,0.3849994291615585,0.4074252307351218,0.43265447689072944,0.4566556555294655,0.48293978548968475,0.5127631704526039,0.553469052152599,0.6166343300069285,1.3317034249220723,0.9912041884816754,0.4678559935622536,0.0,0.9922955145118734,50,1162,1638,772034,no_split,wide,individual,1,0.46094465255737305
0,0.0,0.3914233575853437,0.31485220417082704,0.3314983146294891,0.34696087129349124,0.36274099606840726,0.37836050513078834,0.39576103159005005,0.41620435420111423,0.4419709280481675,0.4822177928304547,0.8783709220516416,0.9891578947368421,0.39997587279156505,0.0,0.9855936675461742,50,1162,1657,772034,no_split,wide,individual,1,0.45831823348999023
1,1.0,0.4085736394009939,0.31532884021101143,0.33570531780975416,0.3538650617765319,0.37290953630045504,0.3918804460732563,0.41425764500064305,0.4397331219871229,0.4705480035345887,0.5240993452466887,1.0437092365682816,0.982010582010582,0.39997587279156505,0.0,0.9855936675461742,50,1162,1657,772034,no_split,wide,individual,1,0.45831823348999023
0,0.0,0.4578302747681217,0.363572015638138,0.3841123022531533,0.4017802637067403,0.42080583023162954,0.43921666845641594,0.4612937942377319,0.48632261359924434,0.5207050511993634,0.5767032934637755,1.0293454766790073,0.989468085106383,0.4679501008403946,0.0,0.9867724867724867,50,1162,1663,772034,no_split,wide,individual,1,0.4599628448486328
1,1.0,0.4779634024276962,0.3713565079086666,0.39635445281882314,0.4196774126747746,0.4406010094357412,0.46238659539387966,0.4864958913408268,0.5145384414859624,0.549252105698071,0.6019764721346592,1.22118569057443,0.9841052631578947,0.4679501008403946,0.0,0.9867724867724867,50,1162,1663,772034,no_split,wide,individual,1,0.4599628448486328
0,0.0,0.49435781918211186,0.36246487488916346,0.3943101872380655,0.4209310827885141,0.446327021457472,0.47192669829491796,0.5008325084231628,0.5344911463403784,0.5793263959909598,0.6512090985436468,1.3161562662666744,0.9931182795698925,0.5093662192512981,0.0,0.9919034852546917,50,1162,1761,772034,no_split,wide,individual,1,0.4606447219848633
1,1.0,0.5242943604965848,0.36442454847904393,0.4031634086052799,0.43504775029070586,0.4683473495610498,0.5023416696504122,0.537467610233112,0.5797849899023437,0.6343303170451714,0.7121815203144245,1.3033509811561372,0.9906951871657754,0.5093662192512981,0.0,0.9919034852546917,50,1162,1761,772034,no_split,wide,individual,1,0.4606447219848633
0,0.0,0.43863763595285205,0.3134305251083764,0.3410841370720087,0.36395191626371565,0.3869616607174846,0.4117595696273527,0.43990658126689697,0.4745548438183321,0.5212688669160089,0.5994979501374768,1.3878104984499298,0.981675392670157,0.4502432380470929,0.0,0.9807329842931937,50,1162,1768,772034,no_split,wide,individual,1,0.45629096031188965
1,1.0,0.46184884014133365,0.3166097589930711,0.349276096974914,0.378741964216756,0.40628691520110566,0.4367641334115938,0.4709551024125184,0.5094844759484152,0.5596005542663541,0.6379083000720781,1.363574065886437,0.9797905759162304,0.4502432380470929,0.0,0.9807329842931937,50,1162,1768,772034,no_split,wide,individual,1,0.45629096031188965
0,0.0,0.37231660169713376,0.28718149362973505,0.30510321367157617,0.3224174070439754,0.33826399037737803,0.3545006309746289,0.37365129635316185,0.39784508290469084,0.4288187645351372,0.4788092316620675,1.0349928241627413,0.9789361702127659,0.37839473999500606,0.0,0.9768617021276595,50,1162,1813,772034,no_split,wide,individual,1,0.4594876766204834
1,1.0,0.3844728782928784,0.28810319152767505,0.3081031693837739,0.3260699418116178,0.34431567167198535,0.36510310295207055,0.38678981317021915,0.4144671823911139,0.45043517159389607,0.5064221482672665,1.0070681877251642,0.9747872340425532,0.37839473999500606,0.0,0.9768617021276595,50,1162,1813,772034,no_split,wide,individual,1,0.4594876766204834
0,0.0,0.38909923658027196,0.3008006322658046,0.3212943818289738,0.3392864137441968,0.3565715708933522,0.3743326923534087,0.39504710817167604,0.417551962680387,0.44659513544180174,0.4931346537229043,1.107591599560816,0.9929473684210526,0.3933950951242698,0.0,0.9909711286089239,50,1162,1821,772034,no_split,wide,individual,1,0.45847153663635254
1,1.0,0.39766846226227803,0.30452438709813834,0.32543642309555815,0.3439508221942902,0.3625715708933522,0.38159513544180174,0.40309657907776875,0.4272278362609846,0.4597127501197655,0.5131362908007892,0.9640612731252,0.9890052356020942,0.3933950951242698,0.0,0.9909711286089239,50,1162,1821,772034,no_split,wide,individual,1,0.45847153663635254
0,0.0,0.4331078606899639,0.33032039396459123,0.3573189958958613,0.3784199365064694,0.39831032205648154,0.41916061499146695,0.44071456368737355,0.46678368821741995,0.5003782772574257,0.5503667588490269,1.0531985553492533,0.9927748691099476,0.4384759304794259,0.0,0.9927659574468085,50,1162,275,772034,no_split,wide,individual,1,0.45732665061950684
1,1.0,0.44401809982962714,0.33137665803635163,0.3572758824253042,0.38104261658300526,0.402926521104964,0.4271752156798194,0.45131934618963726,0.4812588053466975,0.5198291653661457,0.5790429640277223,1.059560976723746,0.9927567567567568,0.4384759304794259,0.0,0.9927659574468085,50,1162,275,772034,no_split,wide,individual,1,0.45732665061950684
0,0.0,0.3744666225060326,0.2905764218269439,0.30976105009895333,0.3260827412543478,0.3421898506038427,0.35900506545884153,0.37741414830247627,0.40012792210268544,0.42947238677181887,0.4773629501885334,0.9012548408036319,0.9913829787234043,0.3835385438898578,0.0,0.9891777188328913,50,1162,3286,772034,no_split,wide,individual,1,0.4583282470703125
1,1.0,0.3925624656896417,0.29541054386796284,0.31721640469879536,0.3382939640766781,0.3582501874357555,0.37855151194485126,0.4002939640766781,0.4254855252483779,0.458017096747389,0.5077681634324345,1.0881729212225346,0.986984126984127,0.3835385438898578,0.0,0.9891777188328913,50,1162,3286,772034,no_split,wide,individual,1,0.4583282470703125
0,0.0,0.44351413258326966,0.3365986842345445,0.3601325893962206,0.3822660314028311,0.4024363502936848,0.42429632712271353,0.44820785723514867,0.47641710852187075,0.5134184063015671,0.5791329231102724,1.2356345159285331,0.9964021164021164,0.4550317062594713,0.0,0.9937203166226913,50,1162,3292,772034,no_split,wide,individual,1,0.4618527889251709
1,1.0,0.46648866112685083,0.3451356581170208,0.3762461401842722,0.4033499576480831,0.42850488837690387,0.45229224692565567,0.47641970408126344,0.5062477078192757,0.5451604841464703,0.604661137896743,1.081158770637585,0.9910526315789474,0.4550317062594713,0.0,0.9937203166226913,50,1162,3292,772034,no_split,wide,individual,1,0.4618527889251709
0,0.0,0.44394304306920124,0.3547755381256586,0.3759083924565401,0.39414886394164056,0.412537461388098,0.4309588591273862,0.4502972393602358,0.4739731877986878,0.5050811813122958,0.5494064113715945,0.8838842906036195,0.996,0.44977875877579054,0.0,0.9961679790026247,50,1162,337788,772034,no_split,wide,individual,1,0.4630162715911865
1,1.0,0.45558392099700507,0.3558009441812796,0.3797079018460148,0.4000440744230792,0.42002771522724186,0.4406984139832853,0.46299224541356193,0.48915517687085136,0.5221240110476767,0.5746611012960692,1.3445229750025889,0.9963350785340314,0.44977875877579054,0.0,0.9961679790026247,50,1162,337788,772034,no_split,wide,individual,1,0.4630162715911865
0,0.0,0.39863152227144777,0.3085017839190005,0.32729917150026133,0.34421050588918345,0.36086031652933553,0.37875763025607656,0.40037775950041526,0.4240723129583922,0.4572570543760103,0.5122694302261672,0.9655017839190004,0.9894117647058823,0.4130737656732073,0.0,0.9848387096774194,50,1162,3487,772034,no_split,wide,individual,1,0.4632713794708252
1,1.0,0.42767214143606697,0.3175266160918317,0.3432766770116522,0.36677255781369483,0.38848628032624144,0.4125816555299665,0.4375128204402588,0.4655149135370598,0.5010393344052553,0.5592156342876737,1.0497866873531794,0.9802162162162162,0.4130737656732073,0.0,0.9848387096774194,50,1162,3487,772034,no_split,wide,individual,1,0.4632713794708252
0,0.0,0.3977205433004249,0.3181550291512923,0.33959398398712154,0.35603000311241323,0.3715602223954244,0.3872351156372801,0.403823427654389,0.42331655375771515,0.44859949481788974,0.48921019217842265,0.803422374465636,0.9973821989528796,0.40472952360458836,0.0,0.9964550264550265,50,1162,3580,772034,no_split,wide,individual,1,0.46643757820129395
1,1.0,0.4118884286211405,0.32064787366357433,0.3440807957890018,0.3633900465200011,0.3815973512887308,0.40035038535740897,0.421666249388923,0.44497971930380903,0.4736370917266864,0.5168338580039772,0.8401627565163049,0.9955080213903743,0.40472952360458836,0.0,0.9964550264550265,50,1162,3580,772034,no_split,wide,individual,1,0.46643757820129395
0,0.0,0.4597693214715422,0.3334402138992409,0.35843127062046537,0.38071144840069804,0.40321610334054686,0.4289726489986549,0.45834604317429806,0.4932316726412972,0.5430356628294154,0.62739673057101,1.4771927493894212,0.9889010989010989,0.4769093245071806,0.0,0.9814917127071823,50,1162,3625,772034,no_split,wide,individual,1,0.46539974212646484
1,1.0,0.4942397720209928,0.34477029817353905,0.3804737040354804,0.41036133917973683,0.4421946297529847,0.4736493666169316,0.5090098121816402,0.5462187090366999,0.5942296234093425,0.6684427141592689,1.2903851598821807,0.974,0.4769093245071806,0.0,0.9814917127071823,50,1162,3625,772034,no_split,wide,individual,1,0.46539974212646484
0,0.0,0.5338940479806265,0.41518715801904726,0.4444750831135401,0.46939964126382533,0.4931414922218579,0.5183760349570555,0.5424715439640737,0.5739509015940302,0.6138020032936466,0.6721331736388835,1.2956676194275434,0.9980104712041885,0.5422143491995186,0.0,0.9971653543307086,50,1162,3754,772034,no_split,wide,individual,1,0.4734072685241699
1,1.0,0.5505784414774576,0.4207825506448743,0.4541438229026973,0.48245488588901936,0.5091414922218579,0.5363239741027345,0.5641416959391733,0.5974758418288205,0.6388922894416541,0.6989453161368747,1.1928688203370765,0.9963157894736843,0.5422143491995186,0.0,0.9971653543307086,50,1162,3754,772034,no_split,wide,individual,1,0.4734072685241699
0,0.0,0.4074223359047016,0.3246983063678053,0.34331864989739447,0.3601917869168828,0.3759731356122791,0.3929788414545892,0.4117378868076098,0.4335880034572579,0.46060695890802184,0.5087077250978023,0.9884161970597206,0.984021164021164,0.4144734065305479,0.0,0.9820052770448549,50,1162,3910,772034,no_split,wide,individual,1,0.4740712642669678
1,1.0,0.4214873662583635,0.3260721247093555,0.34654949878128205,0.36457103022754084,0.3835857376373236,0.4035815655820796,0.4255937700108458,0.4516002566054244,0.48606170834070267,0.5419719537050502,1.016714139689456,0.98,0.4144734065305479,0.0,0.9820052770448549,50,1162,3910,772034,no_split,wide,individual,1,0.4740712642669678
0,0.0,0.40203858807176146,0.32312909925515787,0.34148442343180363,0.3560201126789997,0.3704311117783753,0.3867241044390902,0.4052224307934534,0.4263110549646139,0.4545035740480099,0.49861707353900614,0.8849886183370497,0.9918947368421053,0.4057924678106866,0.0,0.9890765171503958,50,1162,4222,772034,no_split,wide,individual,1,0.4788823127746582
1,1.0,0.4095662093471722,0.327619682381452,0.34802019696399145,0.36414960449820377,0.3802275181808526,0.39761968238145196,0.41599379715733087,0.4370528086518471,0.4644424957478729,0.5069633367128139,0.8927258630922568,0.9862433862433863,0.4057924678106866,0.0,0.9890765171503958,50,1162,4222,772034,no_split,wide,individual,1,0.4788823127746582
0,0.0,0.4520175706008447,0.3216182437210648,0.3466182437210648,0.370130989311392,0.3926439263581014,0.4185505919531356,0.4486352776702783,0.48569931040246106,0.5381329931229655,0.6242582674641961,1.4578046396445519,0.9662433862433862,0.46095873462200865,0.0,0.9567195767195767,50,1162,4264,772034,no_split,wide,individual,1,0.48342180252075195
1,1.0,0.46989989864317266,0.32978138526814055,0.35909607396228577,0.38660970503255754,0.4138515404459129,0.44363793392920786,0.47489934554744473,0.5126617244857296,0.5632927135195516,0.6422893653506656,1.350499262395032,0.9471957671957671,0.46095873462200865,0.0,0.9567195767195767,50,1162,4264,772034,no_split,wide,individual,1,0.48342180252075195
0,0.0,0.4314626100216571,0.36104015908924586,0.37543615489671045,0.38890782463602513,0.40273145488542145,0.41711978784335974,0.43369366039212426,0.4519677947847587,0.4782129020217788,0.5209614584862674,0.9794740845514469,0.9863829787234043,0.43590930477343015,0.0,0.9824533333333333,50,1162,5281,772034,no_split,wide,individual,1,0.479733943939209
1,1.0,0.4403797786415228,0.36498218889264766,0.3821207013074829,0.3970177638922061,0.41230071386611,0.42799463230119295,0.4455875679655605,0.46464322336670705,0.4918601026775133,0.5302477677703265,0.9785503599284834,0.9785026737967915,0.43590930477343015,0.0,0.9824533333333333,50,1162,5281,772034,no_split,wide,individual,1,0.479733943939209
0,0.0,0.45145772860796424,0.3544415268488079,0.3797458511938936,0.40071381824572994,0.419634983680838,0.43901057723766757,0.460954661877144,0.48431157572927985,0.5140766690812508,0.5617170215405464,1.0069902041495795,0.9982010582010582,0.4627236511476468,0.0,0.9973333333333333,50,1162,5332,772034,no_split,wide,individual,1,0.4857769012451172
1,1.0,0.4741712821153886,0.354987097399514,0.38531529890293126,0.411489917127125,0.43599192794090713,0.46126970517915955,0.4866013115317909,0.5167468913850863,0.5546952262366802,0.612120220270998,1.0222692887356508,0.9964516129032258,0.4627236511476468,0.0,0.9973333333333333,50,1162,5332,772034,no_split,wide,individual,1,0.4857769012451172
0,0.0,0.4332274745141664,0.33352880707621924,0.35771352135909307,0.3781196873687727,0.3967800485063302,0.41602996670325787,0.4378862949392154,0.462461793343536,0.4963531169476348,0.5512277373077422,1.1318862949392152,0.9932631578947368,0.44722082016060444,0.0,0.989868073878628,50,1162,5575,772034,no_split,wide,individual,1,0.4881448745727539
1,1.0,0.4612882046728966,0.33784065850665823,0.36566206292743936,0.39200471823494804,0.4159858279164931,0.44222514662286305,0.4700221230486921,0.5014132433560833,0.5454028178645713,0.611741596684119,1.1024308891879995,0.9864550264550265,0.44722082016060444,0.0,0.989868073878628,50,1162,5575,772034,no_split,wide,individual,1,0.4881448745727539
0,0.0,0.44271659346827696,0.3374187766338569,0.35944349951699534,0.37955435645154895,0.40080428080242503,0.4228200754051469,0.4459154860428708,0.47550307404087333,0.5119742022485525,0.5720990072655059,1.3562129375004877,0.9818579234972677,0.4498152752175,0.0,0.9800539083557952,50,1162,5731,772034,no_split,wide,individual,1,0.4901425838470459
1,1.0,0.4567251622393501,0.3404900328503887,0.3660202912705883,0.3892858389437809,0.41213786596779944,0.435914463425344,0.4629242721784249,0.49281280577200814,0.5325820963260834,0.5977544124516063,1.0879071416457158,0.9782978723404255,0.4498152752175,0.0,0.9800539083557952,50,1162,5731,772034,no_split,wide,individual,1,0.4901425838470459
0,0.0,0.4189029158357019,0.33047596859359113,0.3520666228628092,0.36953338401074676,0.3875331197149203,0.40487013916698184,0.425017289970737,0.44655361782416503,0.47724009305001946,0.5227038709052946,0.9304337964561802,0.9959574468085106,0.4309458273995599,0.0,0.9949071618037135,50,1162,5761,772034,no_split,wide,individual,1,0.4909055233001709
1,1.0,0.4429250198546144,0.3390678153461916,0.365553617824165,0.3875538649763261,0.40906423789604424,0.4310690078295741,0.45381724539391954,0.48048354523721226,0.5121311607715276,0.5615083995492481,0.905161456478495,0.9938624338624339,0.4309458273995599,0.0,0.9949071618037135,50,1162,5761,772034,no_split,wide,individual,1,0.4909055233001709
0,0.0,0.4260624355199449,0.3101360838302442,0.33117876383347905,0.35141544856110957,0.37335731281042583,0.3974439097619401,0.4237942222784348,0.45846448230373493,0.5029815796828667,0.578713972206262,1.4050529613376406,0.9475,0.4293348834366116,0.0,0.9445833333333333,50,1162,5803,772034,no_split,wide,individual,1,0.48995113372802734
1,1.0,0.4326073313532783,0.3086570679551232,0.3328714456371885,0.3548117469638957,0.3767738107475181,0.40179105755451733,0.4311838709304578,0.46917538710473233,0.5194704910198151,0.5929317721937039,1.3263023473783628,0.9416666666666667,0.4293348834366116,0.0,0.9445833333333333,50,1162,5803,772034,no_split,wide,individual,1,0.48995113372802734
0,0.0,0.48051149245591007,0.3554942181804674,0.38588164444740186,0.41066276355608433,0.434392436242602,0.4580111051232198,0.4870951125142154,0.5186403805083447,0.5617588672304734,0.6257000345942534,1.422700640486301,0.9917708333333334,0.4990209470806919,0.0,0.9886910994764397,50,1162,5815,772034,no_split,wide,individual,1,0.4888443946838379
1,1.0,0.5177252380699451,0.3564082694303119,0.3929945972091379,0.4260944376233762,0.4596214796137361,0.494924363897974,0.5315489670456844,0.5758442758294468,0.6279957764024225,0.7096868054026538,1.275693564447806,0.985578947368421,0.4990209470806919,0.0,0.9886910994764397,50,1162,5815,772034,no_split,wide,individual,1,0.4888443946838379
0,0.0,0.412332914611785,0.3366655336890309,0.35503675661217377,0.37144019961285313,0.38629266983091326,0.4020292009716562,0.418299192422258,0.4370583330687727,0.4616995024392219,0.4998497765304994,0.8182919540781871,0.9970526315789474,0.42142136518265666,0.0,0.9964550264550265,50,1162,6055,772034,no_split,wide,individual,1,0.4912586212158203
1,1.0,0.43060650139789924,0.33866234111839816,0.3619171718319373,0.3823835366888614,0.3999961701380887,0.4195111686776861,0.44055210406152373,0.4629646325093228,0.49269950243922195,0.535970171767185,0.8629813165830201,0.9958510638297873,0.42142136518265666,0.0,0.9964550264550265,50,1162,6055,772034,no_split,wide,individual,1,0.4912586212158203
0,0.0,0.4564771576987449,0.3334617277777042,0.35945428314805555,0.3815118389947678,0.405300898766816,0.42960507382149715,0.4579338840460614,0.4936287722225989,0.5381474809676396,0.6140566338157489,1.2196053616875153,0.9831351351351352,0.46178793807697843,0.0,0.9779088471849866,50,1162,6109,772034,no_split,wide,individual,1,0.48921632766723633
1,1.0,0.4670139719598145,0.3374705809124252,0.36596487977898745,0.39196071387886583,0.41658093996988566,0.44306548266924983,0.47126991245163463,0.5061806685320392,0.5520508886905685,0.6266201609683995,1.2399665358697438,0.9727659574468085,0.46178793807697843,0.0,0.9779088471849866,50,1162,6109,772034,no_split,wide,individual,1,0.48921632766723633
0,0.0,0.38649793992871406,0.31679418344200244,0.33441294004761635,0.34892697470012546,0.36241082594653784,0.3769614127487637,0.39145629751699734,0.4089521337457448,0.4321042491973379,0.4665846635617966,0.8268433571888802,0.9935078534031414,0.39873755033430236,0.0,0.9900783289817232,50,1162,6214,772034,no_split,wide,individual,1,0.48835062980651855
1,1.0,0.41091341276902815,0.3174039270463371,0.33775633307906655,0.35694938690336747,0.3754386552496333,0.39541505414869493,0.4167186084504325,0.4414943697383781,0.4755329239796663,0.5257563493662532,0.8902256952095886,0.9866666666666667,0.39873755033430236,0.0,0.9900783289817232,50,1162,6214,772034,no_split,wide,individual,1,0.48835062980651855
0,0.0,0.447206576640723,0.3222042007329042,0.350961423579884,0.3765560907556295,0.40087875682540003,0.426964018557724,0.45474089717278976,0.48722998652212235,0.5286454895403734,0.5963464154463338,1.2831996310931226,0.9907936507936508,0.45389652373067013,0.0,0.9899470899470899,50,1162,6253,772034,no_split,wide,individual,1,0.49059486389160156
1,1.0,0.46058647082061716,0.3267811195084526,0.35804623672550084,0.3856056175149236,0.41121345317333896,0.43796401855772393,0.46882549489001024,0.5027829858793396,0.5494382551932037,0.6230187674241152,1.385042769421525,0.9891005291005291,0.45389652373067013,0.0,0.9899470899470899,50,1162,6253,772034,no_split,wide,individual,1,0.49059486389160156
0,0.0,0.44900264849431837,0.35551940104650137,0.37911670299401695,0.3974253710436526,0.4147464172590892,0.4346792909482611,0.45465015357128613,0.4795059229181164,0.5111907762019084,0.5606149024039621,1.0976086261858369,0.9953684210526316,0.4541791002141692,0.0,0.9944881889763779,50,1162,6262,772034,no_split,wide,individual,1,0.49005818367004395
1,1.0,0.45932845009255474,0.3565268482631978,0.3802700337942576,0.40236193133872383,0.4238385635981815,0.44424680341216816,0.467116702994017,0.49263468870684857,0.5263730825082443,0.5825086730442496,1.2224972387915982,0.9936125654450262,0.4541791002141692,0.0,0.9944881889763779,50,1162,6262,772034,no_split,wide,individual,1,0.49005818367004395
0,0.0,0.4776331868393102,0.3670972596361049,0.39429259083752066,0.41766083971888307,0.43952770951386083,0.46285137120622527,0.48771361111658834,0.5157566131556687,0.5530130338207982,0.6077063805783235,1.0580637190581146,0.9991578947368421,0.48912302894457343,0.0,0.9978421052631579,50,1162,6361,772034,no_split,wide,individual,1,0.49043869972229004
1,1.0,0.5006128710498365,0.3825092515466337,0.4154905699034154,0.44151132728476905,0.4656977346631963,0.49003650099859175,0.5164988728559569,0.5445564522975167,0.5798926952761816,0.6328619070577349,0.9977055771851829,0.9965263157894737,0.48912302894457343,0.0,0.9978421052631579,50,1162,6361,772034,no_split,wide,individual,1,0.49043869972229004
0,0.0,0.40759372119105125,0.3351416248691612,0.35224443185417864,0.3663596815780609,0.38054262162433417,0.39524929815502996,0.4113411107072295,0.4298645389557903,0.4538033263495187,0.49476139266906216,0.8887475420043294,0.9905263157894737,0.41135992782901815,0.0,0.9892875989445911,50,1162,6427,772034,no_split,wide,individual,1,0.4875915050506592
1,1.0,0.4151460614862336,0.3375742968418164,0.3553596815780609,0.37162783000357447,0.38756205110472536,0.402658906757696,0.4203669719241138,0.4402077247735171,0.46624443185417863,0.5098622219868307,0.8552444318541786,0.988042328042328,0.41135992782901815,0.0,0.9892875989445911,50,1162,6427,772034,no_split,wide,individual,1,0.4875915050506592
0,0.0,0.4545311520101651,0.361390267499565,0.3834820625333281,0.40207226515060573,0.420000253965448,0.4387934624316785,0.45914436919023977,0.4835218264956385,0.5162060225268793,0.5672580958383246,1.0604998853919054,0.9889361702127659,0.45974081583995235,0.0,0.9861333333333333,50,1162,6583,772034,no_split,wide,individual,1,0.4789314270019531
1,1.0,0.4649783388346048,0.36360606959559594,0.3854356414984572,0.4058398242567513,0.425372214222451,0.44620532220955716,0.4698283572922636,0.49732164590442524,0.5330775697580702,0.5892246327628143,0.9570964092153408,0.9833155080213903,0.45974081583995235,0.0,0.9861333333333333,50,1162,6583,772034,no_split,wide,individual,1,0.4789314270019531
0,0.0,0.4320347866335385,0.3359172378477292,0.3571050058307364,0.3766995988711656,0.395061804658665,0.41338971725750684,0.4339741893837588,0.4607514133099762,0.4930666977464935,0.548931306214235,1.2721357895729224,0.9884656084656085,0.4445476267999081,0.0,0.984812834224599,50,1162,6634,772034,no_split,wide,individual,1,0.4749593734741211
1,1.0,0.4573310148617668,0.33947163782667555,0.366373375057305,0.3888424233184696,0.41140563487001974,0.4387472526814942,0.46617549944082565,0.49760878272989423,0.5377563362558857,0.600807602671912,1.1159766863600311,0.981081081081081,0.4445476267999081,0.0,0.984812834224599,50,1162,6634,772034,no_split,wide,individual,1,0.4749593734741211
0,0.0,0.44938375234920763,0.3578654555332843,0.37822406478022763,0.3956217454016023,0.4138220419686976,0.4334848375137842,0.45364655771095347,0.4769676778537506,0.5088855404017169,0.5600874447830837,0.9765259030189063,0.9928125,0.45501068827174895,0.0,0.9902872062663185,50,1162,6844,772034,no_split,wide,individual,1,0.47464680671691895
1,1.0,0.4606670845917905,0.3632050971872081,0.3867896800247472,0.40767924860133165,0.42706999267388174,0.44669318019563364,0.4684278538310337,0.4935069376969154,0.5248675427040522,0.5729967644341634,1.1240068828376557,0.9877486910994765,0.45501068827174895,0.0,0.9902872062663185,50,1162,6844,772034,no_split,wide,individual,1,0.47464680671691895
0,0.0,0.4203511474166331,0.31336455812735303,0.3362075334346857,0.3569627356201382,0.3780535667445054,0.398408693069943,0.42153414968364405,0.44990924821713557,0.4887613309792002,0.5570164984344064,1.2060818183489983,0.9945263157894737,0.4458892581909511,0.0,0.9923036649214659,50,1162,7624,772034,no_split,wide,individual,1,0.4766209125518799
1,1.0,0.4711613469780366,0.32384217251017705,0.3631290791649841,0.3991004372366514,0.4317724723597273,0.46141521908837707,0.49115168422976524,0.5250126386835917,0.5644444791779093,0.6254683980287766,1.2018050996286689,0.9901041666666667,0.4458892581909511,0.0,0.9923036649214659,50,1162,7624,772034,no_split,wide,individual,1,0.4766209125518799
0,0.0,0.40352991599066224,0.3109054186556845,0.33102387023165536,0.3493807943521443,0.3669882968463601,0.3859082223592943,0.4072632240935758,0.43301996262496395,0.4650132723118959,0.5189675244431656,1.0317786583914836,0.9901041666666667,0.41131672009188386,0.0,0.9881675392670157,50,1162,7756,772034,no_split,wide,individual,1,0.471621036529541
1,1.0,0.4191854905520658,0.3135862478834609,0.33839420884030713,0.3599172920655575,0.3805219448671445,0.40313375941381224,0.42859461256705206,0.4562134606078962,0.4900286101708153,0.5441111137820298,1.0245826605820463,0.9862105263157894,0.41131672009188386,0.0,0.9881675392670157,50,1162,7756,772034,no_split,wide,individual,1,0.471621036529541
0,0.0,0.416501984586832,0.3112441731954173,0.3339424309645522,0.3537679993128343,0.372922930900482,0.3945753087904364,0.4186746940586746,0.4474035615662532,0.4843755076743314,0.5496635246810541,1.4369843995174145,0.9856382978723405,0.42436371951353324,0.0,0.9827345844504022,50,1162,7768,772034,no_split,wide,individual,1,0.47244977951049805
1,1.0,0.4323529420336405,0.3149820149759537,0.34068822668915943,0.36454558012382104,0.38835755968061625,0.411919975756465,0.4397517957058575,0.4727517957058575,0.5139077001847749,0.5743449140773925,1.1873676761631953,0.9797837837837838,0.42436371951353324,0.0,0.9827345844504022,50,1162,7768,772034,no_split,wide,individual,1,0.47244977951049805
0,0.0,0.40114920543111804,0.29194217463904615,0.314022345549837,0.3338944972467849,0.3540859428385546,0.3754698723699107,0.4013774977329321,0.4328200121656203,0.47336435224946816,0.5424659893297011,1.1450137894368677,0.9754973821989529,0.40793417925310754,0.0,0.972565445026178,50,1162,7807,772034,no_split,wide,individual,1,0.46880626678466797
1,1.0,0.41471915307509705,0.295970516966798,0.32114877293885363,0.3439814666312799,0.3674017962986113,0.3919063572337934,0.41888170378531764,0.4494689879003452,0.491860136767597,0.5634054253266106,1.4069165620029616,0.9696335078534032,0.40793417925310754,0.0,0.972565445026178,50,1162,7807,772034,no_split,wide,individual,1,0.46880626678466797
0,0.0,0.39769200177842146,0.3136836118028564,0.33187684020540764,0.34721529086568764,0.3627535652418044,0.37924815484457736,0.3987950740619941,0.4222179991348179,0.4518113482596943,0.5027904996992512,1.0911282920507643,0.98125,0.40307731099758154,0.0,0.9765879265091864,50,1162,7813,772034,no_split,wide,individual,1,0.46904897689819336
1,1.0,0.40854810131545855,0.3171815488472811,0.3377898589547574,0.3560355449643677,0.3733408977883911,0.3918928080987263,0.41183250468240234,0.436096160531221,0.4689149039994635,0.5207988305208157,1.0782089715710506,0.9718518518518519,0.40307731099758154,0.0,0.9765879265091864,50,1162,7813,772034,no_split,wide,individual,1,0.46904897689819336
0,0.0,0.4049423933937611,0.3238439130550887,0.34491715780638654,0.3629775334982134,0.3781924804928334,0.3948236833877755,0.41275462156745746,0.4325790489925978,0.45786290837849414,0.49875188886578625,0.8977913432940148,0.9971727748691099,0.4105841734984732,0.0,0.9967539267015707,50,1162,7828,772034,no_split,wide,individual,1,0.47009849548339844
1,1.0,0.4162259536031852,0.32531751095744,0.3489775334982134,0.36917426405483844,0.3872595625017702,0.40607306800690357,0.4264636278438025,0.4490238205324022,0.4767143453852624,0.5171149782687207,0.896049526894705,0.9963350785340314,0.4105841734984732,0.0,0.9967539267015707,50,1162,7828,772034,no_split,wide,individual,1,0.47009849548339844
0,0.0,0.5496920028657852,0.3951755205777872,0.4256339485262305,0.45269699634472793,0.4805194534901775,0.511313348419691,0.5493386936077856,0.5930221785634483,0.6539390804046914,0.7518421113981564,1.5225105687902882,0.9739682539682539,0.5564485476704684,0.0,0.9686702127659574,50,1162,7840,772034,no_split,wide,individual,1,0.4608571529388428
1,1.0,0.5632773549864315,0.39879869022158293,0.43206413472850486,0.4652446212544853,0.4962167352569963,0.5306453073735353,0.5676885197150658,0.6123942202622547,0.672100354434212,0.769575337511124,1.5269204038192865,0.9633155080213903,0.5564485476704684,0.0,0.9686702127659574,50,1162,7840,772034,no_split,wide,individual,1,0.4608571529388428
0,0.0,0.44722054136793277,0.3517858866692393,0.37610862116329336,0.3956708053767034,0.41490406552558085,0.4356045645399495,0.45660456453994946,0.48316259941300244,0.5118312249462916,0.5566928382046821,0.9297670457786336,0.998848167539267,0.45528991309568134,0.0,0.9982198952879581,50,1162,7924,772034,no_split,wide,individual,1,0.46708250045776367
1,1.0,0.46335928482343014,0.36518088456781833,0.39332950657698157,0.4158156344321339,0.43519170479598285,0.4548278593599881,0.47483055349310854,0.49830178969108607,0.5273032971975385,0.570132146555769,0.9117858866692393,0.9975916230366492,0.45528991309568134,0.0,0.9982198952879581,50,1162,7924,772034,no_split,wide,individual,1,0.46708250045776367
0,0.0,0.4344826329571798,0.33962146401621307,0.36435695454163314,0.3850314146098781,0.40518471871007145,0.42398303234180046,0.44431375850608634,0.4675208132536365,0.4967302190072069,0.54023126306136,1.057882610472752,0.9988359788359789,0.44582961764554374,0.0,0.9980901856763926,50,1162,7939,772034,no_split,wide,individual,1,0.4670109748840332
1,1.0,0.45723695863544167,0.34771304890730864,0.37635541247174964,0.40081694593432393,0.42445336652120247,0.448706122864145,0.47152417841933214,0.49795857605252114,0.5305344406230669,0.5785098010391971,0.9302721045404231,0.9973404255319149,0.44582961764554374,0.0,0.9980901856763926,50,1162,7939,772034,no_split,wide,individual,1,0.4670109748840332
0,0.0,0.4436643892139632,0.3242388329647837,0.3462996804105129,0.3677180099929423,0.3895918881787247,0.4130159138908338,0.44123388701732025,0.4763106092105285,0.522558326608198,0.6035074552072723,1.3697154882962879,0.9807865168539326,0.4589300502162228,0.0,0.9724517906336089,50,1162,8026,772034,no_split,wide,individual,1,0.4623136520385742
1,1.0,0.47361809161299145,0.3297377633478587,0.3611142528080604,0.39111169625896,0.42048812443807204,0.4501419269628627,0.4806735846125495,0.5195622096531037,0.5690741723470303,0.645278288550247,1.333715488296288,0.9644324324324325,0.4589300502162228,0.0,0.9724517906336089,50,1162,8026,772034,no_split,wide,individual,1,0.4623136520385742
0,0.0,0.47203241511557575,0.3614373387166339,0.3845213327963981,0.4053761512595709,0.42586409254139357,0.44849850743692565,0.47441155063994994,0.5052501588193966,0.5466590031614144,0.6108143614867537,1.2712276154010833,0.9852631578947368,0.47452499406294424,0.0,0.9801052631578947,50,1162,808,772034,no_split,wide,individual,1,0.46797990798950195
1,1.0,0.47701757301031267,0.36648035944904417,0.39138292986157647,0.41376095696945636,0.43545543541098225,0.45744690430506213,0.4838230086073007,0.5134591677415412,0.5511879608106994,0.6104718161985203,1.4194430148418484,0.9749473684210527,0.47452499406294424,0.0,0.9801052631578947,50,1162,808,772034,no_split,wide,individual,1,0.46797990798950195
0,0.0,0.43602660210472954,0.30914297757161247,0.33682867903449204,0.35924251739602436,0.38286995126458523,0.40880134375374805,0.4378235210821993,0.4700754588127717,0.5174194488742475,0.5931909846880691,1.4118157944350282,0.967958115183246,0.44636026388210026,0.0,0.9621409921671018,50,1162,8311,772034,no_split,wide,individual,1,0.46975111961364746
1,1.0,0.4566401045043804,0.312060414676585,0.33890770304440065,0.36424421890951014,0.3917616141574798,0.42196957025272736,0.45716603094230424,0.4988808593528607,0.5568351110529559,0.6516195866062973,1.3671764214227733,0.9563541666666666,0.44636026388210026,0.0,0.9621409921671018,50,1162,8311,772034,no_split,wide,individual,1,0.46975111961364746
0,0.0,0.44907531006750995,0.3543686211841732,0.37352356862078834,0.3915256094312885,0.4092792649648814,0.42845812375435854,0.45097710871778457,0.476322945096323,0.5106895255919476,0.5694215548827584,1.1543939725156496,0.9795833333333334,0.4565777439299437,0.0,0.9756084656084656,50,1162,833,772034,no_split,wide,individual,1,0.47217750549316406
1,1.0,0.46432219178794,0.35665008336237825,0.37911897255353755,0.3999841350511558,0.4212930820448619,0.4439730901730651,0.4687591304383362,0.49876173434751675,0.5385192997071223,0.5977643979023666,1.119105798920254,0.9715053763440861,0.4565777439299437,0.0,0.9756084656084656,50,1162,833,772034,no_split,wide,individual,1,0.47217750549316406
0,0.0,0.550697374807751,0.3516879170081743,0.3929122833119958,0.4284601977126132,0.46493020415218145,0.5039045372231269,0.5449586697799135,0.600063995310596,0.681691618902622,0.8139108765245775,1.4815899623947801,0.9640217391304348,0.5664507097078686,0.0,0.9572432432432433,50,1162,837,772034,no_split,wide,individual,1,0.4686892032623291
1,1.0,0.5820346539101354,0.3535060913001511,0.40094115209783515,0.4465899623947801,0.4900265466900436,0.5381851797480088,0.5912016915191807,0.6544554306293163,0.7372159441977009,0.8734355136893889,1.4775448073994035,0.9505376344086022,0.5664507097078686,0.0,0.9572432432432433,50,1162,837,772034,no_split,wide,individual,1,0.4686892032623291
0,0.0,0.38735610826624756,0.30869878319717964,0.32634552197493516,0.34209190887402746,0.35744955430672337,0.37288709350837546,0.3914576118294541,0.4106519381432574,0.4381074196146768,0.48351905188769995,0.8718137929073984,0.9939267015706806,0.39410106527919875,0.0,0.9912105263157894,50,1162,8446,772034,no_split,wide,individual,1,0.47119784355163574
1,1.0,0.40091739749863625,0.30949383082906035,0.3308177045227318,0.3491358239554489,0.3680533436348038,0.38749785516234986,0.40805238616250095,0.43136455459332684,0.46153168104044406,0.508822091443605,0.8904495543067233,0.9884656084656085,0.39410106527919875,0.0,0.9912105263157894,50,1162,8446,772034,no_split,wide,individual,1,0.47119784355163574
0,0.0,0.4166186258987185,0.32525391898145506,0.3458392369993292,0.3642793520390535,0.38127212598409393,0.3988589193652221,0.41846438247757645,0.4431580514706842,0.47638672281535654,0.5324570819900668,1.1927804085092142,0.9817989417989418,0.426928480396073,0.0,0.9781914893617021,50,1162,845,772034,no_split,wide,individual,1,0.4739046096801758
1,1.0,0.43734860071692866,0.3258865949533596,0.34888659495335955,0.3702560419398593,0.3922539308452622,0.4160418829899057,0.44310909715614843,0.474763449716263,0.5135703429054309,0.5777586043468484,0.9951619393607516,0.9745454545454545,0.426928480396073,0.0,0.9781914893617021,50,1162,845,772034,no_split,wide,individual,1,0.4739046096801758
0,0.0,0.4764352379507514,0.3547341550198113,0.38213613604130875,0.40657488929808444,0.4300819086233767,0.4552214429179137,0.48120548802332946,0.5127483412537129,0.557109569497474,0.6221984892664437,1.2245496319571858,0.9907853403141361,0.4821290020730992,0.0,0.9889473684210527,50,1162,8521,772034,no_split,wide,individual,1,0.47772979736328125
1,1.0,0.487883017667641,0.3575618076040466,0.3870013618278599,0.4142131990283147,0.439299425010757,0.4665125598499228,0.4946385830117012,0.5316358821606911,0.5752210166102226,0.6448839809955226,1.1483063190528815,0.9870899470899471,0.4821290020730992,0.0,0.9889473684210527,50,1162,8521,772034,no_split,wide,individual,1,0.47772979736328125
0,0.0,0.5395068946211652,0.39271059346018466,0.42660401657939206,0.45540002495441645,0.483878365935176,0.5134776221888786,0.5464491351256943,0.5871180516830353,0.6407242415331366,0.7187240882387863,1.4526933987797157,0.9942391304347826,0.5426859350606229,0.0,0.9927956989247312,50,1162,8704,772034,no_split,wide,individual,1,0.47634243965148926
1,1.0,0.5457973363417943,0.39758912028501164,0.4342463398623247,0.4648032392589093,0.49543704284037615,0.5248520369742053,0.5572763162732206,0.595158081194777,0.6435938909586908,0.7184491351256943,1.2913467938698755,0.9913829787234043,0.5426859350606229,0.0,0.9927956989247312,50,1162,8704,772034,no_split,wide,individual,1,0.47634243965148926
0,0.0,0.4255949666358415,0.3208002750826273,0.3514681528668475,0.37407536577386874,0.3951965508845078,0.4160842299053513,0.4391021624566178,0.4634961971953429,0.4943477586100148,0.5395656288827275,0.94191015313643,0.9993478260869565,0.4326780771182715,0.0,0.9990684931506849,50,1162,8755,772034,no_split,wide,individual,1,0.4777491092681885
1,1.0,0.43987858722195733,0.32562880272455386,0.3569875638818713,0.38183864976538895,0.4064633346392216,0.4290397456594051,0.4528672511138054,0.4809875638818713,0.5151047977053994,0.5658222786928295,1.0762747088808255,0.9987845303867403,0.4326780771182715,0.0,0.9990684931506849,50,1162,8755,772034,no_split,wide,individual,1,0.4777491092681885
0,0.0,0.442513487091229,0.34202826637753336,0.36445922912839346,0.38348667541765824,0.4028486474876019,0.42412480050924084,0.4462887042233659,0.4734503503533633,0.5095002510553365,0.566072095305931,1.1285913110603167,0.9832291666666667,0.44807296625789567,0.0,0.981875,50,1162,8785,772034,no_split,wide,individual,1,0.4785335063934326
1,1.0,0.4536324454245623,0.3430662391722299,0.368481565190824,0.38992454763548007,0.4105905167441984,0.4321354710076075,0.45661102170292545,0.4862883077044371,0.5260571080227583,0.5919890232456854,1.2854866754176582,0.9805208333333333,0.44807296625789567,0.0,0.981875,50,1162,8785,772034,no_split,wide,individual,1,0.4785335063934326
0,0.0,0.40398268385158914,0.305554036347231,0.32930536120702897,0.3490061586717882,0.36856616348616944,0.3885189918496484,0.4104139800332488,0.4343219618381241,0.4668847119463922,0.5189803075987088,1.0974786999359893,0.9891005291005291,0.41726926911817436,0.0,0.9883819628647215,50,1162,8788,772034,no_split,wide,individual,1,0.4779319763183594
1,1.0,0.4306265277106457,0.3084411394551337,0.33433384054546667,0.35905056276358455,0.3841377010117746,0.4097897803267903,0.43868470966010054,0.4725491218415616,0.5137059309331469,0.5790434922845706,1.1562729231058297,0.987659574468085,0.41726926911817436,0.0,0.9883819628647215,50,1162,8788,772034,no_split,wide,individual,1,0.4779319763183594
0,0.0,0.4620778982267733,0.3505849427126013,0.3729841564631262,0.3935924939873173,0.414984150461904,0.4365808948796127,0.4606384174540697,0.4901940605766717,0.5325552898178969,0.6070029425555723,1.2914272690689859,0.9687830687830687,0.47718453815697703,0.0,0.9566489361702127,50,1162,916,772034,no_split,wide,individual,1,0.47666168212890625
1,1.0,0.49245274642868037,0.3531598063184209,0.3795895465762655,0.4050068875230463,0.4329748337397687,0.46471531157855456,0.4983563727284418,0.5376123207232643,0.589579198656552,0.6707187755306301,1.4335241865023651,0.9443850267379679,0.47718453815697703,0.0,0.9566489361702127,50,1162,916,772034,no_split,wide,individual,1,0.47666168212890625
0,0.0,0.40933814076580544,0.31727012016585127,0.33699548436799154,0.3547622176492543,0.37118280318508723,0.3896495016209483,0.41061612562073696,0.43618280318508723,0.4693336788789737,0.5230773559357893,1.2346144421203102,0.9752631578947368,0.4175412243408849,0.0,0.9725984251968504,50,1162,985,772034,no_split,wide,individual,1,0.4791841506958008
1,1.0,0.42570135983441937,0.31789258436168255,0.3395026148392676,0.3596195529193046,0.3809010196160376,0.4034741819304162,0.427678729432167,0.4598632626973493,0.4999219511761674,0.5649954843679916,1.110105546688019,0.9699476439790576,0.4175412243408849,0.0,0.9725984251968504,50,1162,985,772034,no_split,wide,individual,1,0.4791841506958008
0,0.0,0.4335479477056476,0.33889997131236493,0.36200433308168134,0.380086642965485,0.39697526199777267,0.4156426363184148,0.4365574651624941,0.4617080208272043,0.49211801530684923,0.545940998666022,1.2235289809601095,0.9912195121951219,0.4545302666172789,0.0,0.9871859296482413,50,1162,275,772034,no_split,narrow,individual,1,0.4801485538482666
1,1.0,0.47681718566849357,0.3441455614621915,0.3758999713123649,0.4027351181079984,0.42900811354656565,0.4585855264831028,0.49011752699670447,0.5257533358254282,0.5691010179383027,0.6316609371882573,1.1297519086105885,0.9829015544041451,0.4545302666172789,0.0,0.9871859296482413,50,1162,275,772034,no_split,narrow,individual,1,0.4801485538482666
0,0.0,0.46440788676460926,0.3645510889407809,0.38475785825663444,0.4039852905590934,0.4227280890077546,0.44222657464477516,0.4650179655264893,0.49293779031804114,0.5306963542996775,0.5927708945208985,1.5200391008039345,0.9869523809523809,0.47141260826533077,0.0,0.9808080808080808,50,1162,808,772034,no_split,narrow,individual,1,0.48009729385375977
1,1.0,0.47932116479840337,0.37069277490396096,0.3962214762653108,0.4177624924800468,0.4388227811811565,0.4616709320250146,0.4844956219014311,0.5113342155783155,0.549456486917304,0.6128544558194343,1.14874335686807,0.9738709677419355,0.47141260826533077,0.0,0.9808080808080808,50,1162,808,772034,no_split,narrow,individual,1,0.48009729385375977
0,0.0,0.4463747972877792,0.3328082765265422,0.35941724280921994,0.3807377214873335,0.40224214456356955,0.42519232220764014,0.44852714513579295,0.47845496029466006,0.5178832096269504,0.5835307908786312,1.2564501843646043,0.9897,0.4644002572877791,0.0,0.9858666666666667,50,1162,833,772034,no_split,narrow,individual,1,0.47836899757385254
1,1.0,0.48500078300206484,0.3365259310783211,0.36952506132279583,0.40021493912566164,0.4293762565958984,0.46248172584811204,0.49945209473662666,0.5402259290763483,0.5895090711445907,0.6618319376432245,1.2217567902434767,0.9814857142857143,0.4644002572877791,0.0,0.9858666666666667,50,1162,833,772034,no_split,narrow,individual,1,0.47836899757385254
0,0.0,0.5724789267391537,0.35104506197438096,0.39373893968386586,0.4332422685602579,0.47336720329549936,0.5150666005614855,0.5657002915835927,0.6307432710264637,0.7217421838335247,0.8837730850072355,1.4704698152948048,0.9550785340314136,0.5910516467458374,0.0,0.9463297872340426,50,1162,837,772034,no_split,narrow,individual,1,0.4787604808807373
1,1.0,0.6102267252392244,0.3524122898419366,0.40746894808993045,0.4572831536327634,0.5096464178994409,0.5644821494348145,0.6222743092049898,0.6937444213732207,0.7897585788968838,0.9398079937947006,1.4771004650222195,0.9372972972972973,0.5910516467458374,0.0,0.9463297872340426,50,1162,837,772034,no_split,narrow,individual,1,0.4787604808807373
0,0.0,0.417940221138383,0.3248408885104576,0.3439249553379925,0.36164644521156714,0.37867561872159716,0.3967382601111584,0.41766106289672916,0.4425565096851196,0.4765303338716435,0.5361841549781312,1.3249861053661285,0.9823958333333334,0.42936723985496056,0.0,0.9755614973262032,50,1162,845,772034,no_split,narrow,individual,1,0.48203301429748535
1,1.0,0.4414221167427786,0.3281653416628369,0.3535469575125113,0.3758458477491929,0.3987012496503633,0.4239047922457163,0.44962803134179785,0.48016815108452404,0.5185261779614266,0.577180556808025,1.2750792168870069,0.9683516483516483,0.42936723985496056,0.0,0.9755614973262032,50,1162,845,772034,no_split,narrow,individual,1,0.48203301429748535
0,0.0,0.4637121502656031,0.3449198272590439,0.36819740535373835,0.3901647323847931,0.4111708805317916,0.4333195439714795,0.45929636159329684,0.4933054755955809,0.5393249799420452,0.6191289500528573,1.4537100938102552,0.984804469273743,0.48432929225052224,0.0,0.9745901639344262,50,1162,916,772034,no_split,narrow,individual,1,0.47890734672546387
1,1.0,0.5040644174660333,0.35533508269865544,0.38917497929645734,0.42069245597214106,0.4503485789117663,0.4813045793385714,0.5153735530755595,0.5531896729861419,0.6027186149239224,0.6773850599173852,1.393121343908315,0.964812834224599,0.48432929225052224,0.0,0.9745901639344262,50,1162,916,772034,no_split,narrow,individual,1,0.47890734672546387
0,0.0,0.4035742231052388,0.31254463723044357,0.3315660040989235,0.3484876218321469,0.36455441326346966,0.3816865562050785,0.3998121874181635,0.4253420605394147,0.4582623909292844,0.5182797737495055,1.1344440883535287,0.9837288135593221,0.4270694470269696,0.0,0.970840108401084,50,1162,985,772034,no_split,narrow,individual,1,0.4880352020263672
1,1.0,0.44872910657981513,0.3192165724850937,0.34608810070576135,0.3736896640654153,0.40177356016709354,0.42976950940516057,0.45954660175092826,0.4938556198910804,0.5385104289059822,0.6006372894592169,1.222479625743232,0.9589583333333334,0.4270694470269696,0.0,0.970840108401084,50,1162,985,772034,no_split,narrow,individual,1,0.4880352020263672
0,0.0,0.40131505233379017,0.311898208334537,0.3292899476513877,0.34522897392385243,0.3602404887524357,0.3770763131552006,0.39595761599199647,0.42032121255582794,0.45500106918487215,0.5168433353105125,1.4306811580946146,0.9865909090909091,0.4299925128601059,0.0,0.9686315789473684,50,1162,1108,772034,no_split,narrow,individual,1,0.4871523380279541
1,1.0,0.45473385135339806,0.3222287624829645,0.35322897392385244,0.38396560036865635,0.41235902718870515,0.4402589953403923,0.4683457854271978,0.5012490631580866,0.5421812673983964,0.6031871895338005,1.2863316530480469,0.9531372549019608,0.4299925128601059,0.0,0.9686315789473684,50,1162,1108,772034,no_split,narrow,individual,1,0.4871523380279541
0,0.0,0.43346494212681647,0.3185925336356131,0.34118848630781395,0.36173593353885325,0.3824898602271477,0.404191817884061,0.42788520915025924,0.45965006749232445,0.5022939858492832,0.5833431190268116,1.4111567062428039,0.9769849246231156,0.45276486854021025,0.0,0.9651105651105651,50,1162,1507,772034,no_split,narrow,individual,1,0.4866166114807129
1,1.0,0.4712297019837937,0.32538321834329054,0.35578384380275824,0.38701328061584694,0.4167677264733533,0.446825413474037,0.48065062265830255,0.5216125677250947,0.5704716462246485,0.6451916846023946,1.417357912862196,0.95375,0.45276486854021025,0.0,0.9651105651105651,50,1162,1507,772034,no_split,narrow,individual,1,0.4866166114807129
0,0.0,0.4448259684823155,0.34245355312068243,0.3659162337989843,0.3878453561729038,0.406648806616359,0.425771020249377,0.4481879283303478,0.47505471533242066,0.5109035886281094,0.5670430093529077,1.2289817180352143,0.9902150537634409,0.45787345032659854,0.0,0.9869109947643979,50,1162,1538,772034,no_split,narrow,individual,1,0.49089884757995605
1,1.0,0.4702552443216835,0.3474485887536411,0.37371336395973087,0.398580090524278,0.42462911426408373,0.45116697390260485,0.4788698570401747,0.5119299863023784,0.5539817180352141,0.6197229662557223,1.2021964438657489,0.9837755102040816,0.45787345032659854,0.0,0.9869109947643979,50,1162,1538,772034,no_split,narrow,individual,1,0.49089884757995605
0,0.0,0.4584495596384831,0.3552011319192091,0.3749796144115712,0.3930130088313605,0.41166290804476885,0.4305384139705768,0.4534602899279118,0.48252764752197413,0.5248784931944868,0.5988863420067108,1.3115804648722542,0.9945744680851064,0.4856523831473774,0.0,0.9827322404371585,50,1162,1582,772034,no_split,narrow,individual,1,0.4905085563659668
1,1.0,0.5143834551680074,0.3789796144115712,0.4191014362827178,0.4469591898772237,0.47414948255162587,0.5026308551120995,0.5299796144115713,0.5606612079646183,0.5988218621152855,0.6593554127007919,1.3628861857234902,0.9702247191011236,0.4856523831473774,0.0,0.9827322404371585,50,1162,1582,772034,no_split,narrow,individual,1,0.4905085563659668
0,0.0,0.4375434100011589,0.33732263769111015,0.35315518980848576,0.36868684986901223,0.38424069469254735,0.4025443677933487,0.4253263497270146,0.45563910075814484,0.5006380235633292,0.5830005330834256,1.3249695574642497,0.9874371859296482,0.46908282109169935,0.0,0.9544862155388472,50,1162,1583,772034,no_split,narrow,individual,1,0.48177433013916016
1,1.0,0.5004645351267871,0.3609770442598759,0.3974654108577961,0.4289695574642496,0.45744505618576364,0.4854715672218157,0.5143226376911102,0.5486034367882276,0.5873050381513172,0.6522835308544546,1.390564318375606,0.9217,0.46908282109169935,0.0,0.9544862155388472,50,1162,1583,772034,no_split,narrow,individual,1,0.48177433013916016
0,0.0,0.5445043269944363,0.37987077159099264,0.4089881702730961,0.4355684191198896,0.46546638167655296,0.49657765584647184,0.5352184336312574,0.5850537248239728,0.659935061773042,0.7803251405029161,1.5111155679898165,0.9700546448087431,0.5604972880224791,0.0,0.9556593406593407,50,1162,1597,772034,no_split,narrow,individual,1,0.4817020893096924
1,1.0,0.5766669668519371,0.3932818676909497,0.43529946050815677,0.47335329938097914,0.5089944153537056,0.545358467646264,0.5859588288216461,0.631729234313159,0.6933127328538053,0.7939008683412005,1.5196557213102504,0.9411049723756906,0.5604972880224791,0.0,0.9556593406593407,50,1162,1597,772034,no_split,narrow,individual,1,0.4817020893096924
0,0.0,0.4072627143740153,0.318955655619965,0.33890626186036654,0.3557898843730216,0.3709238063952184,0.38802664295634604,0.4069202496579851,0.4284072466260102,0.45992445585957475,0.5162020819534796,1.2953035017325878,0.9909289617486339,0.43422769186035404,0.0,0.9820266666666667,50,1162,1601,772034,no_split,narrow,individual,1,0.48404908180236816
1,1.0,0.4599286860270207,0.3287109379407819,0.3605263668002347,0.38954919617539374,0.416761089304239,0.44740724662601017,0.47726297010132507,0.5083216768704766,0.5464144515357069,0.6065213848759647,1.1555590209219495,0.9735416666666666,0.43422769186035404,0.0,0.9820266666666667,50,1162,1601,772034,no_split,narrow,individual,1,0.48404908180236816
0,0.0,0.48411149693163597,0.3454220807851704,0.37151878048390224,0.3959541567264383,0.4198142407057239,0.44682997516697975,0.47853271771991845,0.5203868078393235,0.5753026091552389,0.6689193846547736,1.402282003620811,0.9867326732673267,0.503296821109215,0.0,0.9760215053763441,50,1162,1614,772034,no_split,narrow,individual,1,0.4767439365386963
1,1.0,0.526093500426103,0.3580734315672482,0.3988543191741739,0.4368183376176207,0.4715665573157628,0.5056469801087207,0.5419402086416903,0.5814293895566717,0.6343026091552388,0.7154310319214593,1.30431143928958,0.9632941176470589,0.503296821109215,0.0,0.9760215053763441,50,1162,1614,772034,no_split,narrow,individual,1,0.4767439365386963
0,0.0,0.44678457695809337,0.33429185643500037,0.36287121276671885,0.3860492240056718,0.406691225416052,0.42794745279786045,0.4514321506431696,0.4793633213949133,0.5190263855053056,0.5812361188084126,1.239087038637375,0.9976795580110497,0.4721751724800474,0.0,0.9956842105263158,50,1162,1638,772034,no_split,narrow,individual,1,0.4807131290435791
1,1.0,0.4952691312211212,0.34244732348256884,0.3854319377572057,0.420761789309064,0.4534423282470674,0.4853828804514332,0.5161749170802249,0.551701786339233,0.593221297553965,0.6571765200058938,1.1957710366035812,0.9938693467336683,0.4721751724800474,0.0,0.9956842105263158,50,1162,1638,772034,no_split,narrow,individual,1,0.4807131290435791
0,0.0,0.3901322785725346,0.2984704744119129,0.3189263924828582,0.33540174630799485,0.35149962464663687,0.3694829030124198,0.38864866481696264,0.4120389020775565,0.4460565074775866,0.5054695189392348,1.2865319424602075,0.9858163265306122,0.41072803136421726,0.0,0.9740161725067386,50,1162,1657,772034,no_split,narrow,individual,1,0.4792969226837158
1,1.0,0.4337952744909018,0.3039611355564432,0.3322271266563364,0.3586356916301536,0.3866903367886405,0.4149188092717254,0.4446226767425901,0.4794150515252503,0.5219359240764931,0.5865767861462706,1.1904962779263493,0.9608,0.41072803136421726,0.0,0.9740161725067386,50,1162,1657,772034,no_split,narrow,individual,1,0.4792969226837158
0,0.0,0.451956573351898,0.35744302869001715,0.37695979133180274,0.3954551858291959,0.4130886162563182,0.43148382532438123,0.4530649962917122,0.48024138845879494,0.5156607198071999,0.5722999452326153,1.2774913821127412,0.9932307692307693,0.4705522177616337,0.0,0.9865989847715736,50,1162,1663,772034,no_split,narrow,individual,1,0.48001575469970703
1,1.0,0.4887740803741889,0.37154997951114044,0.4019990744737554,0.42710440407183176,0.4515714138745842,0.4752051828937941,0.49927967484087826,0.5287497285735563,0.5660601839172785,0.6249468949272837,1.0481856291288734,0.9801005025125629,0.4705522177616337,0.0,0.9865989847715736,50,1162,1663,772034,no_split,narrow,individual,1,0.48001575469970703
0,0.0,0.4865281300778347,0.35690370199458843,0.3870148795962747,0.4130366734808947,0.4371020905664055,0.4626180841094259,0.4911332691791847,0.523592539549858,0.5668125294878265,0.6479770623869164,1.4439064516225768,0.9897237569060774,0.5036364726192711,0.0,0.9874033149171271,50,1162,1761,772034,no_split,narrow,individual,1,0.481097936630249
1,1.0,0.5207448151607076,0.3585005336285815,0.39689409376317114,0.4298698544072901,0.46533481267770704,0.4974428876331183,0.5338847878968119,0.5775639547024544,0.6305766127968747,0.7079276102704765,1.3050815134590716,0.9850828729281768,0.5036364726192711,0.0,0.9874033149171271,50,1162,1761,772034,no_split,narrow,individual,1,0.481097936630249
0,0.0,0.44481347149381545,0.32787741493763173,0.3536500672279652,0.3745355898360708,0.3953289743620716,0.4178569671174115,0.4436867718085088,0.4744907308473704,0.5155355898360708,0.5935500666475867,1.3814528830703081,0.9786956521739131,0.4644365596254254,0.0,0.9715135135135136,50,1162,1768,772034,no_split,narrow,individual,1,0.4764249324798584
1,1.0,0.48384864680938355,0.33247315073166395,0.3628387032570624,0.39293486578526393,0.4239662661201992,0.4568532583723074,0.49502383970152225,0.5370843564103289,0.5911936999840637,0.6716689409737407,1.4755788847226197,0.9644086021505376,0.4644365596254254,0.0,0.9715135135135136,50,1162,1768,772034,no_split,narrow,individual,1,0.4764249324798584
0,0.0,0.3718517705131364,0.2846889727053112,0.30349224198891533,0.3195952184180065,0.33512121391871763,0.35247205532644743,0.3713129749823434,0.3934793680983721,0.4255027944859454,0.4820884660954403,0.9884866703070582,0.9806703910614525,0.39173360213862557,0.0,0.9683422459893049,50,1162,1813,772034,no_split,narrow,individual,1,0.47202062606811523
1,1.0,0.4099841039897157,0.28953443641356097,0.3133479977660254,0.3367644196809838,0.36223232915726844,0.3888987983071718,0.4177366246570004,0.45148750991666137,0.4967027190571052,0.5586960730400579,1.286751348492607,0.957025641025641,0.39173360213862557,0.0,0.9683422459893049,50,1162,1813,772034,no_split,narrow,individual,1,0.47202062606811523
0,0.0,0.3996560012327332,0.30500065457182474,0.3245136533343206,0.34152681651365036,0.3587879471118291,0.3761212102495767,0.39669830460318767,0.42300065457182473,0.4606877683921701,0.5248029932511628,1.1765191490233962,0.9893658536585366,0.4181791920079083,0.0,0.9763861386138614,50,1162,1821,772034,no_split,narrow,individual,1,0.46842288970947266
1,1.0,0.43726087094715893,0.3170824148596978,0.34556694898370705,0.3710031626917142,0.394324745281128,0.4200006545718247,0.44675920319089785,0.47849454785535084,0.519703166831949,0.5795478650882195,1.2421581634308798,0.9630150753768845,0.4181791920079083,0.0,0.9763861386138614,50,1162,1821,772034,no_split,narrow,individual,1,0.46842288970947266
0,0.0,0.3929203104415805,0.3077863216286958,0.3246208452535015,0.3404565830873311,0.35626331840017267,0.3723364789863305,0.39190910455548306,0.4164539825406177,0.45007914829356,0.502290614977251,0.9969639971457537,0.987292817679558,0.4035360674652081,0.0,0.9791489361702128,50,1162,3286,772034,no_split,narrow,individual,1,0.465054988861084
1,1.0,0.41338966757431883,0.31608683136607396,0.33852017250914274,0.3589219128731499,0.3787255924850594,0.3985512362621817,0.42063318640863484,0.44563729145884146,0.47815009735510183,0.528117664546676,1.3643212654225074,0.9715897435897436,0.4035360674652081,0.0,0.9791489361702128,50,1162,3286,772034,no_split,narrow,individual,1,0.465054988861084
0,0.0,0.46652363627050963,0.3478569174345956,0.3733926531066816,0.3937129679307285,0.41504943264446437,0.43867244130674604,0.46413248713339234,0.4951960566999427,0.5409489304838029,0.62003956074461,1.2595331397323004,0.99125,0.4912754994073727,0.0,0.9868681318681318,50,1162,3292,772034,no_split,narrow,individual,1,0.46538710594177246
1,1.0,0.5144474563865638,0.36122223865327807,0.3991753845740409,0.4341568724301258,0.46573563213364116,0.49753313973230046,0.5316354365546355,0.5698229386933258,0.6147424616073979,0.6841225040899023,1.4506404690874715,0.9827659574468085,0.4912754994073727,0.0,0.9868681318681318,50,1162,3292,772034,no_split,narrow,individual,1,0.46538710594177246
0,0.0,0.3869452209830681,0.30027545979379855,0.32093878735762754,0.33683955424646417,0.3519340228472895,0.3684177270661071,0.3872403687045108,0.4105270489388563,0.4412362102236833,0.49353821560605504,1.0877275045348165,0.9919786096256684,0.4166460307615249,0.0,0.9826493506493507,50,1162,3487,772034,no_split,narrow,individual,1,0.46625304222106934
1,1.0,0.44469679555228975,0.3119411696127966,0.34358547353658525,0.3742875015034254,0.40241439719342503,0.43072380435450053,0.459992372165382,0.4944494624250553,0.532544501903363,0.5912403687045107,1.143919729316275,0.9738383838383838,0.4166460307615249,0.0,0.9826493506493507,50,1162,3487,772034,no_split,narrow,individual,1,0.46625304222106934
0,0.0,0.39912388399167215,0.33103582494816947,0.345113515684457,0.3576344402388559,0.37022233152888806,0.3837040210263006,0.3988325598705962,0.41759546554424304,0.4425029540516529,0.4843480596697136,1.058163135880954,0.9883582089552239,0.4151532341949704,0.0,0.977258883248731,50,1162,3580,772034,no_split,narrow,individual,1,0.46187257766723633
1,1.0,0.4318470134222395,0.3368998306102303,0.35759496380771166,0.37894075111321246,0.3990214330560795,0.41860738753487914,0.4404723230304832,0.464466073809639,0.4953888380912815,0.5418999819037817,1.1033067262266751,0.965699481865285,0.4151532341949704,0.0,0.977258883248731,50,1162,3580,772034,no_split,narrow,individual,1,0.46187257766723633
0,0.0,0.47900386240216375,0.34544496702508415,0.3702663834717914,0.3924711171912067,0.4152239138990654,0.43893856458507885,0.46887425298284063,0.5054464343099542,0.5589714225545277,0.66034078610547,1.426179548790557,0.9576344086021505,0.4993163895809198,0.0,0.9387845303867404,50,1162,3625,772034,no_split,narrow,individual,1,0.4617795944213867
1,1.0,0.5207830376221051,0.34899156037187323,0.3834748061503681,0.41716276514566797,0.4512737705305846,0.48818771276214024,0.5291459815007789,0.5782270918331951,0.6388188092223192,0.7375723177459287,1.4651795487905572,0.9188636363636363,0.4993163895809198,0.0,0.9387845303867404,50,1162,3625,772034,no_split,narrow,individual,1,0.4617795944213867
0,0.0,0.5030600512780056,0.3880058636460442,0.4161096548233712,0.44121585997728385,0.46466985909145925,0.4856139328798559,0.5099809251853055,0.5382771548607039,0.5752317400057954,0.6383841460479175,1.3058362262252825,0.9978651685393258,0.532552406261106,0.0,0.9970731707317073,50,1162,3754,772034,no_split,narrow,individual,1,0.4660975933074951
1,1.0,0.5600374281825294,0.40009928654907734,0.44326376137681867,0.4811420819983015,0.5166578575270518,0.5508457513101574,0.5856764539723959,0.621891420023376,0.6653091480795597,0.728620963643651,1.2737930470279484,0.9963350785340314,0.532552406261106,0.0,0.9970731707317073,50,1162,3754,772034,no_split,narrow,individual,1,0.4660975933074951
0,0.0,0.4088381854033488,0.3229445469524482,0.34361984379650073,0.36065078237917914,0.3773619113425245,0.39393446504973745,0.41281918947993856,0.435229216800664,0.46665823588846117,0.5129794635915561,0.9881423370033268,0.9948936170212765,0.4227588027553497,0.0,0.9938341968911917,50,1162,3910,772034,no_split,narrow,individual,1,0.46523284912109375
1,1.0,0.4359763586249263,0.33224496296126,0.35829480360400057,0.381115743886341,0.40121869544584604,0.4236793144515296,0.44581363435901994,0.4722291096562776,0.5054616620462312,0.5567007823210144,1.0052291096562775,0.9928282828282828,0.4227588027553497,0.0,0.9938341968911917,50,1162,3910,772034,no_split,narrow,individual,1,0.46523284912109375
0,0.0,0.399456289959713,0.32947642150848183,0.344077285971234,0.35769182309220515,0.3698762930696286,0.3838762930696286,0.3998429623511614,0.4200261678457997,0.4454853933600331,0.4888221068660468,0.9602415295791893,0.9919337016574585,0.4124652983923969,0.0,0.9845263157894737,50,1162,4222,772034,no_split,narrow,individual,1,0.464261531829834
1,1.0,0.4242976125949888,0.33883747381115015,0.36030315033206284,0.37801754980674007,0.3953988682728067,0.4125363577587684,0.431096830605077,0.45399488087499557,0.481023340009231,0.52169620907554,0.9035189355146919,0.9777889447236181,0.4124652983923969,0.0,0.9845263157894737,50,1162,4222,772034,no_split,narrow,individual,1,0.464261531829834
0,0.0,0.46915748767049587,0.31687808993775585,0.34552902290761206,0.37128720008412414,0.3957997708294936,0.42536118585486027,0.45812780199009107,0.5030991630717621,0.5682073583159759,0.6774351840709564,1.454415052668396,0.9633333333333334,0.4893030488235885,0.0,0.9459949622166247,50,1162,4264,772034,no_split,narrow,individual,1,0.45795774459838867
1,1.0,0.5093473760010375,0.3211138491894263,0.358516846337302,0.3960282084366505,0.43437752548327757,0.47465369107482436,0.520865975078536,0.570154129946553,0.6382402721515412,0.7400130401533974,1.4377747324897623,0.9287437185929648,0.4893030488235885,0.0,0.9459949622166247,50,1162,4264,772034,no_split,narrow,individual,1,0.45795774459838867
0,0.0,0.4182748075767953,0.3333700716085699,0.35428938108565156,0.37167420194075185,0.3876708247831787,0.40497133966177795,0.4223752051365402,0.44460364591112356,0.4721521737546752,0.5175250307773995,0.8721435327833801,0.9957671957671957,0.43391004768491587,0.0,0.9935869565217391,50,1162,5281,772034,no_split,narrow,individual,1,0.4643595218658447
1,1.0,0.4504187648940487,0.34137520513654024,0.36837972077236686,0.3920955372417156,0.4146649930820186,0.43863811466492875,0.46384734224986646,0.4913047960957616,0.524912877050047,0.5734217928980186,1.0174596019608484,0.9912849162011174,0.43391004768491587,0.0,0.9935869565217391,50,1162,5281,772034,no_split,narrow,individual,1,0.4643595218658447
0,0.0,0.4419675814433846,0.3445562589719284,0.36580638119749437,0.3853767559450717,0.4030501721177603,0.4225160132199741,0.4446946693589186,0.4703132593095919,0.5061190427965413,0.5651927650586113,1.135217841314848,0.9975,0.46474097744808496,0.0,0.9945945945945946,50,1162,5332,772034,no_split,narrow,individual,1,0.46425318717956543
1,1.0,0.48726949822692833,0.36497586590663283,0.3992092086216739,0.42645166017429625,0.4531746778489779,0.4769884362149571,0.5014554646534619,0.531457944763343,0.5661120030379575,0.6174902934336328,1.0481120541728937,0.9917204301075269,0.46474097744808496,0.0,0.9945945945945946,50,1162,5332,772034,no_split,narrow,individual,1,0.46425318717956543
0,0.0,0.43345625902171764,0.3296917624538155,0.3537284871821579,0.3745580101377036,0.3938406598930298,0.41472932750608055,0.4370506969334302,0.4618344110316935,0.49817828638145883,0.5601710631908214,1.1138171144925666,0.9969543147208122,0.4575317240744314,0.0,0.9952307692307693,50,1162,5575,772034,no_split,narrow,individual,1,0.46413612365722656
1,1.0,0.4821061624961134,0.3440296087916721,0.3797191933205912,0.41203858451088005,0.4421399742956184,0.4720199654916343,0.5016051796465296,0.533551640840709,0.5734592339054575,0.631441219914736,1.1151117983808028,0.9934715025906736,0.4575317240744314,0.0,0.9952307692307693,50,1162,5575,772034,no_split,narrow,individual,1,0.46413612365722656
0,0.0,0.4350567138429793,0.316218643254741,0.34095880944349083,0.36394759763083695,0.38544484464390394,0.4076047337502848,0.4314126325566476,0.46330207662430944,0.5081868890520848,0.5846979782990372,1.4271951765833113,0.9895336787564767,0.4600776121193883,0.0,0.9832142857142857,50,1162,5731,772034,no_split,narrow,individual,1,0.46126675605773926
1,1.0,0.48434411145279,0.32551420505912015,0.3644470641752372,0.399519397590107,0.4330469553096746,0.46539337736314323,0.5019924576017383,0.5422780366340312,0.5904470641752372,0.6625437933008753,1.327731981895804,0.9770854271356784,0.4600776121193883,0.0,0.9832142857142857,50,1162,5731,772034,no_split,narrow,individual,1,0.46126675605773926
0,0.0,0.4241003742308598,0.3431563462751425,0.36007048251842777,0.37520112503333,0.39030592633698713,0.40508057592661195,0.42306642347367734,0.4450674730896593,0.47505693273488486,0.5291551466450439,1.0407788763410841,0.9979347826086956,0.4541463471606075,0.0,0.9880653950953678,50,1162,5761,772034,no_split,narrow,individual,1,0.4626436233520508
1,1.0,0.48435650573477995,0.36567471463173024,0.40306845741121333,0.4311269977521654,0.4547513197505733,0.47776284380068634,0.5010483411855685,0.5267453578294579,0.5582226029749531,0.6063261450098869,1.1577662507458477,0.9781420765027322,0.4541463471606075,0.0,0.9880653950953678,50,1162,5761,772034,no_split,narrow,individual,1,0.4626436233520508
0,0.0,0.446813834911293,0.3162624547997699,0.33707615929690904,0.358411393684772,0.38217366418514664,0.4100439966527651,0.4409633799996297,0.4788950438949385,0.5362948104699202,0.6255195286406641,1.4309757720077287,0.9469047619047619,0.4497395811366124,0.0,0.9357723577235773,50,1162,5803,772034,no_split,narrow,individual,1,0.4664323329925537
1,1.0,0.45218498096673015,0.32127000444141357,0.34708987566724814,0.3712794407450765,0.39622447372342995,0.4221002421557436,0.4515782484073757,0.48808419995794505,0.5370511569879926,0.6197013986447083,1.4034253389028495,0.9264676616915423,0.4497395811366124,0.0,0.9357723577235773,50,1162,5803,772034,no_split,narrow,individual,1,0.4664323329925537
0,0.0,0.4910520848323832,0.3454374836588954,0.3706096702082895,0.39519729119188024,0.41999910169078036,0.4479865796835967,0.4820866629734725,0.525284541306244,0.5874241863038496,0.6991020379910894,1.4764809772754388,0.979502487562189,0.5177471151073648,0.0,0.9645994832041344,50,1162,5815,772034,no_split,narrow,individual,1,0.46325159072875977
1,1.0,0.5465949704045225,0.36425722573155733,0.4073657592659286,0.4471626561355977,0.4833933788551829,0.5214145970077665,0.5621587855231366,0.6072738706610216,0.6632299760175882,0.7525425886082197,1.4844809772754388,0.948494623655914,0.5177471151073648,0.0,0.9645994832041344,50,1162,5815,772034,no_split,narrow,individual,1,0.46325159072875977
0,0.0,0.4124033671441188,0.3363827253583222,0.35431817731871373,0.3694325155687049,0.3839452563068262,0.39938505132441876,0.41582740076224267,0.4342272353221146,0.4594551192071955,0.500225823826998,1.031945256306826,0.9944943820224719,0.43921443654986847,0.0,0.9885013623978202,50,1162,6055,772034,no_split,narrow,individual,1,0.47052741050720215
1,1.0,0.4644650733447014,0.3465784121638984,0.37668426315637843,0.40443251556870485,0.4293665658852473,0.4544905391630256,0.48026737578127726,0.5086332730245336,0.5427753457329123,0.5917700209048081,0.9947632948734223,0.9828571428571429,0.43921443654986847,0.0,0.9885013623978202,50,1162,6055,772034,no_split,narrow,individual,1,0.47052741050720215
0,0.0,0.47112499522173124,0.3342057721344982,0.35935759916787263,0.384408439562875,0.4093162949414367,0.43542500176288246,0.4656020518322135,0.5043920202161789,0.560156059948222,0.6546212978899439,1.424385247033843,0.9713265306122449,0.4815172891884982,0.0,0.9616393442622951,50,1162,6109,772034,no_split,narrow,individual,1,0.46995043754577637
1,1.0,0.4934989928207708,0.3403629389896394,0.3706770450811321,0.40160276271394835,0.43085839048690205,0.4622972128904993,0.4999843924211841,0.5426582846242987,0.5995416295451591,0.6855391425693584,1.390385247033843,0.9504705882352941,0.4815172891884982,0.0,0.9616393442622951,50,1162,6109,772034,no_split,narrow,individual,1,0.46995043754577637
0,0.0,0.3945057041196647,0.3140487040175519,0.3297411889510801,0.3434917463217033,0.3575172246727868,0.37258454140965847,0.390230218272928,0.4116823440280968,0.44317880872983806,0.5006091437220238,0.9787796870466293,0.9938679245283019,0.42082268412056956,0.0,0.9730935251798561,50,1162,6214,772034,no_split,narrow,individual,1,0.47330474853515625
1,1.0,0.4480382927068713,0.3307762438850051,0.3623168817947828,0.387430011985002,0.41210448921334963,0.43672492303384913,0.4615121510007895,0.48980242183204664,0.5243124464517432,0.5766014112028751,1.130639646151614,0.9516097560975609,0.42082268412056956,0.0,0.9730935251798561,50,1162,6214,772034,no_split,narrow,individual,1,0.47330474853515625
0,0.0,0.45227935078184434,0.3274217141713334,0.35358596761998945,0.37700891356080185,0.40012785031236536,0.4243565542337589,0.4536484062826548,0.48843171920599837,0.5338169687972408,0.6101519747368395,1.4454605305643158,0.9743617021276596,0.4603304735878718,0.0,0.9694960212201591,50,1162,6253,772034,no_split,narrow,individual,1,0.47295570373535156
1,1.0,0.46833899786053396,0.32895921236541686,0.3574193714810052,0.38325280806794626,0.41006389873297067,0.437167180303338,0.47005496887353726,0.5105115588335366,0.56342738043941,0.6480882131593583,1.297128532064428,0.9646560846560847,0.4603304735878718,0.0,0.9694960212201591,50,1162,6253,772034,no_split,narrow,individual,1,0.47295570373535156
0,0.0,0.4481389333147219,0.3437768180885106,0.3658379883972119,0.38585378028833783,0.4059497286746225,0.42631036923795806,0.4501552876373678,0.478855106356491,0.5170529919663972,0.5780928029845093,1.2215519834895765,0.9924861878453038,0.4667795647704029,0.0,0.985108695652174,50,1162,6262,772034,no_split,narrow,individual,1,0.47508835792541504
1,1.0,0.4848221010991636,0.3518554972184423,0.3851731844773611,0.4137484255986307,0.4413243767533748,0.46941883507175797,0.4993846327332556,0.5318056058672435,0.5735188402071085,0.6337708395183526,1.3108972383357678,0.9779679144385027,0.4667795647704029,0.0,0.985108695652174,50,1162,6262,772034,no_split,narrow,individual,1,0.47508835792541504
0,0.0,0.48697086174327675,0.38396752498585507,0.4070684506979727,0.427806825226834,0.44715774141840314,0.46745574010107704,0.4910010434551904,0.5179012393643279,0.5542751476678305,0.6110356261969704,1.1147553835158897,0.9962566844919786,0.5029758890625048,0.0,0.9939673913043479,50,1162,6361,772034,no_split,narrow,individual,1,0.4738163948059082
1,1.0,0.5195114697735305,0.3948124408346374,0.4278596399395332,0.45511435008699563,0.4808177545156019,0.5070734856486929,0.5324073660394538,0.5623098943036198,0.5995046286277362,0.6573480249922777,1.241359464850223,0.9916022099447513,0.5029758890625048,0.0,0.9939673913043479,50,1162,6361,772034,no_split,narrow,individual,1,0.4738163948059082
0,0.0,0.40671863881804377,0.30937514878406697,0.33352641135122213,0.3525727736697436,0.3714883004120866,0.3908121028136302,0.4125293452042945,0.4382295181929612,0.4720433840017347,0.5229799535841321,0.8929799535841321,0.994535519125683,0.41848352320113263,0.0,0.9922631578947368,50,1162,6427,772034,no_split,narrow,individual,1,0.4740312099456787
1,1.0,0.4294123244300933,0.316964454286682,0.34435086820444283,0.3671447549181091,0.3908164152984309,0.4149919527165661,0.4401027830873614,0.469073100832721,0.5057481852137656,0.5603508682044428,1.0089813807895789,0.9901522842639594,0.41848352320113263,0.0,0.9922631578947368,50,1162,6427,772034,no_split,narrow,individual,1,0.4740312099456787
0,0.0,0.46478623305927735,0.35915862286270167,0.38012636491567076,0.39978739893505005,0.41915862286270167,0.4401319016076188,0.4650364213895505,0.4974358322182123,0.5351732304099293,0.6010898353386817,1.3373928681872638,0.9832460732984293,0.47322743103134496,0.0,0.977203166226913,50,1162,6583,772034,no_split,narrow,individual,1,0.4748075008392334
1,1.0,0.4818033289710518,0.37006966374271716,0.3969149739510093,0.4186374947930726,0.44080356369855,0.4620731581191631,0.48630858407738947,0.5167572874461224,0.555097147819243,0.6143199395457781,1.203721072241332,0.971063829787234,0.47322743103134496,0.0,0.977203166226913,50,1162,6583,772034,no_split,narrow,individual,1,0.4748075008392334
0,0.0,0.44006583532951526,0.3464507923231997,0.36450822787876136,0.38089116229388714,0.3977537478843023,0.41627492330579274,0.4375492448148613,0.4637257124272216,0.49983304605891626,0.5636334902151995,1.1497328227600916,0.9857435897435898,0.46349834815002805,0.0,0.9721538461538461,50,1162,6634,772034,no_split,narrow,individual,1,0.47191476821899414
1,1.0,0.48693086097054095,0.3577682958610497,0.3883426019288437,0.4161210961381572,0.4435492448148613,0.4697785899201419,0.49746866188276717,0.531200337157827,0.5719458272336205,0.6363202984478308,1.3785651484311756,0.9585641025641025,0.46349834815002805,0.0,0.9721538461538461,50,1162,6634,772034,no_split,narrow,individual,1,0.47191476821899414
0,0.0,0.4422994667116082,0.3519971494300075,0.37199842241765496,0.38813023798950474,0.40409088106469915,0.4222760705050829,0.44075444063077807,0.46485104260756455,0.4948957582965157,0.5530118181208614,1.3619981509762864,0.9927368421052631,0.4761243116238889,0.0,0.9786666666666667,50,1162,6844,772034,no_split,narrow,individual,1,0.4721231460571289
1,1.0,0.5108633415337988,0.3615720136773056,0.39889111679009825,0.43276480633446146,0.4658725507644282,0.4981999115632813,0.5309279119505673,0.5667479448252364,0.607684103747999,0.6723490585831079,1.2349981509762864,0.9642162162162162,0.4761243116238889,0.0,0.9786666666666667,50,1162,6844,772034,no_split,narrow,individual,1,0.4721231460571289
0,0.0,0.43796940885153207,0.3403367962063669,0.3615303678957891,0.3805413544887049,0.39723371562997817,0.4158549834947298,0.43701560534712414,0.46064751285821964,0.495773886101122,0.5615395079131532,1.2376168272656314,0.9875409836065574,0.46145621905388157,0.0,0.9753678474114441,50,1162,7624,772034,no_split,narrow,individual,1,0.4730980396270752
1,1.0,0.4848153835486098,0.3482492310736294,0.3795958191323416,0.4086350209805208,0.43570482441709296,0.4662606361895639,0.49675903154976325,0.5311415728566122,0.5743677435206488,0.6442682521912442,1.3390075635441163,0.9632608695652174,0.46145621905388157,0.0,0.9753678474114441,50,1162,7624,772034,no_split,narrow,individual,1,0.4730980396270752
0,0.0,0.397761201906258,0.3182082186807606,0.333940757516257,0.3472520443183579,0.36062737130128786,0.37541415196800043,0.3917887740492841,0.41272978970242696,0.44560305787353865,0.5067259778110117,1.2829834323782707,0.9883422459893048,0.429151630411864,0.0,0.9683028720626632,50,1162,7756,772034,no_split,narrow,individual,1,0.4720761775970459
1,1.0,0.4591006616901716,0.3345291389515913,0.36672081827500586,0.3958915939096619,0.4204451098537397,0.4482004461749892,0.4732930126807392,0.502952063749489,0.5400001871719359,0.5947559987940287,1.159104942383207,0.9491836734693877,0.429151630411864,0.0,0.9683028720626632,50,1162,7756,772034,no_split,narrow,individual,1,0.4720761775970459
0,0.0,0.4223857994217707,0.31482340420404903,0.339921329976786,0.3614358130797132,0.3818092015372791,0.403453133029261,0.4267586545701238,0.4547762704147148,0.49217897724111714,0.5516788258206694,1.0856088289562686,0.9929166666666667,0.4371873162444088,0.0,0.9889839572192514,50,1162,7768,772034,no_split,narrow,individual,1,0.47045040130615234
1,1.0,0.452802103222137,0.3194814175053608,0.349793196212685,0.37879319621268503,0.40645709035281685,0.43443457858894974,0.46451566512091086,0.5009038638608186,0.5448609496982867,0.6096093672664223,1.129345535117003,0.9848351648351649,0.4371873162444088,0.0,0.9889839572192514,50,1162,7768,772034,no_split,narrow,individual,1,0.47045040130615234
0,0.0,0.4004525621772009,0.30009586490758167,0.31968340245561494,0.3371761961231499,0.3553453142278441,0.37471552968689364,0.39617558166044375,0.42303266478514184,0.462972020348279,0.5319739918721463,1.2267668763863144,0.9828877005347594,0.4277005608546777,0.0,0.9631720430107527,50,1162,7807,772034,no_split,narrow,individual,1,0.469024658203125
1,1.0,0.45524313249083,0.30863030367288746,0.34195328603694425,0.3714309407001025,0.40243143715090524,0.43384356357787246,0.46866453928951546,0.5074932806398362,0.5569250415686009,0.6262636380945443,1.380198816757276,0.9432432432432433,0.4277005608546777,0.0,0.9631720430107527,50,1162,7807,772034,no_split,narrow,individual,1,0.469024658203125
0,0.0,0.3989143766295146,0.314181137387571,0.33142386169504534,0.3462241351383868,0.3611892363478709,0.3777922997829424,0.3974891199126361,0.42141446325031007,0.453571539228292,0.5096436349087453,1.0272241351383868,0.9903296703296703,0.4161192270145866,0.0,0.9801662049861496,50,1162,7813,772034,no_split,narrow,individual,1,0.46398115158081055
1,1.0,0.4336124268474531,0.3244571529767421,0.3521254330485016,0.3744104353454235,0.3966237339705115,0.41919349083651203,0.44279768360701843,0.47043495878894426,0.5045468394923893,0.5582645396055347,1.0284608520080416,0.9698324022346368,0.4161192270145866,0.0,0.9801662049861496,50,1162,7813,772034,no_split,narrow,individual,1,0.46398115158081055
0,0.0,0.39686185041235084,0.3238661939563294,0.34290640300659075,0.35770164191981974,0.3722524476033613,0.38620696717675024,0.4020522870342246,0.42018723724164747,0.444059329936753,0.4808667508411355,0.864439569566713,0.9972340425531915,0.42426859045869597,0.0,0.9957425742574257,50,1162,7828,772034,no_split,narrow,individual,1,0.4629991054534912
1,1.0,0.4481226049434778,0.3338661939563294,0.3657526614773967,0.3927770126136957,0.4172006054412093,0.4427275295829588,0.466560790998356,0.49095785328936764,0.5220875015468667,0.567476023716036,0.8690334675614597,0.9944444444444445,0.42426859045869597,0.0,0.9957425742574257,50,1162,7828,772034,no_split,narrow,individual,1,0.4629991054534912
0,0.0,0.5279744965654706,0.3794846541592678,0.4091294164810647,0.4346217833427635,0.46019214087853105,0.48877743347461866,0.5245867260485318,0.56740309595916,0.6245959864874653,0.7269024574363357,1.4959020993496688,0.9898412698412699,0.5501502760659013,0.0,0.9796899224806201,50,1162,7840,772034,no_split,narrow,individual,1,0.4566993713378906
1,1.0,0.5713180655890396,0.3951965046533426,0.4398624191800757,0.4778516083767004,0.5140363930940491,0.5495543036647075,0.5863476632036188,0.62884974430502,0.6843092348129621,0.7671293689835217,1.4849742005989957,0.97,0.5501502760659013,0.0,0.9796899224806201,50,1162,7840,772034,no_split,narrow,individual,1,0.4566993713378906
0,0.0,0.46684038502519565,0.3799971888197434,0.4011603008318257,0.41827730072516955,0.43500871989557055,0.4527879957794276,0.47315368052440604,0.49660464237838436,0.5253618444736816,0.5698076382773754,0.9842776488571783,0.9995555555555555,0.48949474058075126,0.0,0.99664,50,1162,7924,772034,no_split,narrow,individual,1,0.46129679679870605
1,1.0,0.5104064534012641,0.40532744231019996,0.4365045501277922,0.4603155870367602,0.4817043821992872,0.5025970710592607,0.5243657688010823,0.5481032547401266,0.5776671259386066,0.6229118199759313,0.9726427467911251,0.993948717948718,0.48949474058075126,0.0,0.99664,50,1162,7924,772034,no_split,narrow,individual,1,0.46129679679870605
0,0.0,0.4521762560496038,0.3466877013072,0.3707024254318218,0.3925120608766945,0.4121933551393095,0.4332897268115405,0.45639786906922303,0.48389675701726464,0.5226877013072001,0.5792154217506035,1.1260556229410033,0.9958947368421053,0.4671497777018356,0.0,0.9937721518987341,50,1162,7939,772034,no_split,narrow,individual,1,0.4636528491973877
1,1.0,0.48102767581853834,0.3530170668234645,0.3856027604440939,0.41425986199776255,0.44068770130720003,0.4674019749723863,0.4951988879753417,0.5274606784624782,0.5665576477415911,0.6244887896409367,1.131590253855877,0.9918048780487805,0.4671497777018356,0.0,0.9937721518987341,50,1162,7939,772034,no_split,narrow,individual,1,0.4636528491973877
0,0.0,0.43538001510440555,0.3234299576826392,0.34802422597680116,0.36943953956060216,0.389568965944393,0.41109924494591416,0.4356644010193542,0.46492692296132865,0.5049762608583329,0.5768041164608275,1.1383074776249256,0.9904242424242424,0.4586662195214574,0.0,0.9850282485875707,50,1162,8026,772034,no_split,narrow,individual,1,0.4622802734375
1,1.0,0.478995445599836,0.330292402472249,0.365461244860225,0.39680633813277066,0.42939922766243754,0.4613963360963686,0.4954677360262129,0.534165636932886,0.5790676757390651,0.6469684259142371,1.3105246121451433,0.9803174603174604,0.4586662195214574,0.0,0.9850282485875707,50,1162,8026,772034,no_split,narrow,individual,1,0.4622802734375
0,0.0,0.44719641418188477,0.323312026429593,0.34796518236609036,0.3687823286067818,0.3910079852346087,0.41613923399637,0.44339777219201565,0.47908719868248945,0.5266015012188593,0.6085668611459039,1.4403201796687741,0.9524064171122995,0.4602316757744421,0.0,0.9398904109589041,50,1162,8311,772034,no_split,narrow,individual,1,0.46155333518981934
1,1.0,0.47392602362729724,0.3241009193317003,0.3520935661419783,0.37830200167125944,0.40574779782938947,0.4390238699872555,0.4741125156020869,0.5207343966313244,0.5786664288475573,0.6690979623478295,1.458383049773307,0.9267415730337079,0.4602316757744421,0.0,0.9398904109589041,50,1162,8311,772034,no_split,narrow,individual,1,0.46155333518981934
0,0.0,0.3753260792012855,0.29719327835354453,0.3157585194251217,0.3306702828380271,0.34439075695060184,0.35791924072415987,0.3735791866894249,0.3927635633776752,0.4199706625727985,0.4716863504446973,1.163529906661684,0.9882901554404145,0.40550165441506875,0.0,0.9718157181571816,50,1162,8446,772034,no_split,narrow,individual,1,0.46930861473083496
1,1.0,0.43859191587109236,0.3041874990808447,0.33473133585501474,0.36460167004263533,0.39350469518173403,0.42331633300601923,0.455602516365432,0.4904175703446675,0.529658391278806,0.5866803178834993,1.0680679577331056,0.95375,0.40550165441506875,0.0,0.9718157181571816,50,1162,8446,772034,no_split,narrow,individual,1,0.46930861473083496
0,0.0,0.4828736950314493,0.38079692298601686,0.40225238846278716,0.42073479858863716,0.4397465118922721,0.4605770702984142,0.4827245520811199,0.5101413842327572,0.5488891093316915,0.6157376568284191,1.2126782241803478,0.9902512562814071,0.49382606545499563,0.0,0.984,50,1162,8521,772034,no_split,narrow,individual,1,0.4703366756439209
1,1.0,0.5055439241339511,0.38578587339787973,0.41381693392943686,0.4378616131834028,0.4621636359890624,0.48726871809073286,0.5133391310555718,0.5448179553403697,0.5844042401190471,0.6467387278516515,1.452796922986017,0.9773118279569892,0.49382606545499563,0.0,0.984,50,1162,8521,772034,no_split,narrow,individual,1,0.4703366756439209
0,0.0,0.5347677208210058,0.39988841354466187,0.43091769746285097,0.45753711891536764,0.48532379223798044,0.5139081339269287,0.5448263065799628,0.5791115272753421,0.6257403342349598,0.6950200498364573,1.3589596063606513,0.9940983606557378,0.5478335870743134,0.0,0.9921489971346705,50,1162,8704,772034,no_split,narrow,individual,1,0.459514856338501
1,1.0,0.5622375239680201,0.4091972902143283,0.4462255089013774,0.477811908286026,0.5105861906238338,0.542920920232287,0.5747511284656555,0.6156599674502776,0.6653794966616317,0.7404605163718316,1.378283636991937,0.99,0.5478335870743134,0.0,0.9921489971346705,50,1162,8704,772034,no_split,narrow,individual,1,0.459514856338501
0,0.0,0.4337586724669609,0.3254783513645639,0.35136204415896766,0.37435719136438844,0.3950112693344935,0.4171418712154239,0.44011332243058265,0.46675821239937604,0.5051666401016703,0.5653781067724466,1.1243188766938483,0.9985507246376811,0.452782895037806,0.0,0.9973711340206186,50,1162,8755,772034,no_split,narrow,individual,1,0.4698662757873535
1,1.0,0.4745398788619218,0.33788706763193255,0.37798862540979816,0.4091882246836642,0.4373188766938484,0.46505775151886136,0.49436560032521504,0.5270258286087585,0.5643257584562542,0.6180418240691701,1.039331915877664,0.9960220994475139,0.452782895037806,0.0,0.9973711340206186,50,1162,8755,772034,no_split,narrow,individual,1,0.4698662757873535
0,0.0,0.4450288063619942,0.3335057867216421,0.35574704293712667,0.3753728097322587,0.39557756609841654,0.41708729226772234,0.44215588165034503,0.4750601602789897,0.5202293648257228,0.5929273934393186,1.2776968374287294,0.9936538461538461,0.46315591790045574,0.0,0.9878,50,1162,8785,772034,no_split,narrow,individual,1,0.46945810317993164
1,1.0,0.4827936220671224,0.3535045632346847,0.38918504473812165,0.4190720736930967,0.4443128604797156,0.4692500535184337,0.4969272237203186,0.527343122046208,0.5652403470610556,0.6240981169192663,1.2023833897916851,0.9814583333333333,0.46315591790045574,0.0,0.9878,50,1162,8785,772034,no_split,narrow,individual,1,0.46945810317993164
0,0.0,0.39998775936522296,0.30395942120164565,0.32194598313859474,0.33693292295637217,0.35278119451903317,0.3703062682634111,0.39123538992183715,0.4160753242364072,0.45605472227122845,0.5350822158547771,1.2962119531143588,0.9774468085106383,0.4323285789790719,0.0,0.9470437017994858,50,1162,8788,772034,no_split,narrow,individual,1,0.4679737091064453
1,1.0,0.4625777037920251,0.31813105357665533,0.35238558558366334,0.3831569330838732,0.4142260151988458,0.4454706767311159,0.476641936238448,0.5123650186107418,0.5590741791894681,0.6250600599523852,1.289347010903213,0.9186069651741293,0.4323285789790719,0.0,0.9470437017994858,50,1162,8788,772034,no_split,narrow,individual,1,0.4679737091064453
0,0.0,0.4266865918708075,0.3624441427404024,0.3751425222774879,0.3868106054485162,0.3991445197306796,0.41122212552758175,0.4258198708489167,0.4430319558159834,0.4687763450844784,0.5085808930843743,0.944902496172876,0.9936666666666667,0.44647949897463257,0.0,0.9817486338797814,50,1162,161753,772034,no_split,narrow,individual,1,0.46574997901916504
1,1.0,0.4656339252041407,0.37606497062082955,0.3989973857216488,0.4188721111689402,0.43735943636202906,0.45504939220781065,0.47449988933944753,0.4970338137947917,0.5234444137188723,0.5663496025043787,0.8728800004694544,0.9702150537634409,0.44647949897463257,0.0,0.9817486338797814,50,1162,161753,772034,no_split,narrow,individual,1,0.46574997901916504
0,0.0,0.43961371560723744,0.3570234852545494,0.37599964249396023,0.39206885287627435,0.4077759272311637,0.42366849901559783,0.4426459666704092,0.4641494620525378,0.4936930684610526,0.5393593752278426,1.024087145186025,0.9979381443298969,0.46042845897201046,0.0,0.9948936170212765,50,1162,337788,772034,no_split,narrow,individual,1,0.47459936141967773
1,1.0,0.48261560299819706,0.3722816433512196,0.4031966234771095,0.4273259013658746,0.4507913462428712,0.4728190246859381,0.4966909789381966,0.5214946923193322,0.5546082454700386,0.6042848160019689,0.9895465418326339,0.9916483516483516,0.46042845897201046,0.0,0.9948936170212765,50,1162,337788,772034,no_split,narrow,individual,1,0.47459936141967773
