,congruency,mean_rt,qu10_rt,qu20_rt,qu30_rt,qu40_rt,qu50_rt,qu60_rt,qu70_rt,qu80_rt,qu90_rt,qu100_rt,mean_acc,mean_rt_overall,nonconvergent_trials,accuracy_overall,n_posterior_draws,condition,id,slurm_id,split,spacing,estimation_level,number_parts,time_post_sampling_sec
0,0.0,0.4177591064774008,0.34040994809971764,0.3563873169725669,0.36982267801005453,0.38325590504374735,0.3979696470040067,0.4157346199246831,0.4374724563765088,0.4679469782253659,0.5220802857930784,1.1777669064365357,0.9796842105263158,0.42555397187681643,0.0,0.969047619047619,50,1151,1108,772021,no_split,wide,individual,1,0.7132596969604492
1,1.0,0.4334317613762258,0.3550722067511024,0.3726609589717813,0.3872791040621526,0.4017907738172835,0.4165830298573071,0.4337324298913925,0.45435195170423204,0.4845588310019386,0.5327999138392601,1.0440605429277914,0.9582978723404255,0.42555397187681643,0.0,0.969047619047619,50,1151,1108,772021,no_split,wide,individual,1,0.7132596969604492
0,0.0,0.4470274496751346,0.3603490986967369,0.38165721586489487,0.3986346206254394,0.4149685590298643,0.43072527880525496,0.44912530141173224,0.4709571441320099,0.5024067565880717,0.5543644963945342,1.0387911971038957,0.9740740740740741,0.45286508242554124,0.0,0.965,50,1151,1507,772021,no_split,wide,individual,1,0.7011587619781494
1,1.0,0.458641588131441,0.3658781010270337,0.38828315493297433,0.40717274615105187,0.42422252157287826,0.4418832168140039,0.4605713886978743,0.4869380697427483,0.5195263845393323,0.5730257010631377,1.117647194714002,0.956020942408377,0.45286508242554124,0.0,0.965,50,1151,1507,772021,no_split,wide,individual,1,0.7011587619781494
0,0.0,0.4518892402142823,0.3590273277392824,0.3820151737770548,0.40052270525429284,0.4184958011859578,0.43571993117991004,0.45566800442077243,0.4785655263074019,0.5132115020479596,0.5673138722601654,1.119896685877165,0.9914736842105263,0.4594038936910394,0.0,0.98750656167979,50,1151,1538,772021,no_split,wide,individual,1,0.7058675289154053
1,1.0,0.46687920343231626,0.36904948992520265,0.3949958948276912,0.4144070280267375,0.43335728619052255,0.4519472611340944,0.47282359376362654,0.498262991563375,0.531801833019465,0.5846652875663657,1.0136903183384598,0.9835602094240837,0.4594038936910394,0.0,0.98750656167979,50,1151,1538,772021,no_split,wide,individual,1,0.7058675289154053
0,0.0,0.46573347256374165,0.3783732363316735,0.40050107584654404,0.4170920059065605,0.4328985228983929,0.449470097418879,0.4687205172275113,0.49044480210211433,0.5218582391407004,0.5722619544444869,1.1109471605772054,0.9891304347826086,0.469032688149296,0.0,0.9865945945945946,50,1151,1582,772021,no_split,wide,individual,1,0.7020657062530518
1,1.0,0.47229642829844654,0.38433058558488065,0.40746389926531407,0.42438708751138243,0.43969404670117695,0.45661488202362094,0.47533757315116826,0.4971612631170722,0.5289333298288575,0.5795136200081743,1.0338015351050718,0.9840860215053764,0.469032688149296,0.0,0.9865945945945946,50,1151,1582,772021,no_split,wide,individual,1,0.7020657062530518
0,0.0,0.43616127264918414,0.35754569945804027,0.3778116506521489,0.39358621895185186,0.4076059634312705,0.421867133166932,0.437862204044188,0.457340140875307,0.48370808364609946,0.5321286378770249,1.016731683176248,0.9803141361256544,0.4498475668876829,0.0,0.9613577023498695,50,1151,1583,772021,no_split,wide,individual,1,0.6931219100952148
1,1.0,0.4634625783436894,0.3746409234140685,0.3984349448323376,0.4163887280917019,0.433906536310353,0.45029261197613013,0.4689390115431482,0.49121496123382696,0.5204687902228929,0.5689060509299545,0.9420922589486765,0.9425,0.4498475668876829,0.0,0.9613577023498695,50,1151,1583,772021,no_split,wide,individual,1,0.6931219100952148
0,0.0,0.5563355280408349,0.4005849341566677,0.43531698601833796,0.4641044162849393,0.49146225026890994,0.5241372462956218,0.55608791189404,0.5975375227525945,0.6548273113832028,0.7558069244329334,1.5239413867704963,0.9759322033898306,0.5609675617442661,0.0,0.976043956043956,50,1151,1597,772021,no_split,wide,individual,1,0.703758955001831
1,1.0,0.5653518931106154,0.4113645664469791,0.44652141002280377,0.47426443696543,0.5021860544982966,0.5328566777186139,0.5661702951139014,0.606704876438398,0.6638267716799752,0.7599456241907687,1.5363774825918906,0.9761497326203209,0.5609675617442661,0.0,0.976043956043956,50,1151,1597,772021,no_split,wide,individual,1,0.703758955001831
0,0.0,0.40952959768471386,0.33718131714829364,0.3584635305468796,0.37325646320971917,0.3872844661859224,0.40119620078437634,0.41571053240492933,0.43201639684050996,0.45431729945877747,0.4913908943345045,0.8135835797586498,0.9957894736842106,0.4178045906414479,0.0,0.9912928759894459,50,1151,1601,772021,no_split,wide,individual,1,0.6945102214813232
1,1.0,0.426123366629699,0.3470883738290209,0.36823521167089457,0.3849301256983174,0.4005423683414492,0.41547344537688125,0.43212490298788936,0.4518018241567968,0.4777140269918048,0.519675369249247,0.9972336343283832,0.9867724867724867,0.4178045906414479,0.0,0.9912928759894459,50,1151,1601,772021,no_split,wide,individual,1,0.6945102214813232
0,0.0,0.4755372294484333,0.3504210601227894,0.3785287817786311,0.40073971456942364,0.42346002681465744,0.44660237940312303,0.47349933790595927,0.5080152095667105,0.5550475268536904,0.6368122445609107,1.4600423048204676,0.9802105263157894,0.4841074776427173,0.0,0.9742631578947368,50,1151,1614,772021,no_split,wide,individual,1,0.7052938938140869
1,1.0,0.4926777258370012,0.36116790477409877,0.39095160648315175,0.4159524713237771,0.4391566093819406,0.4653334917200138,0.49228749332773514,0.528693662590562,0.5768693538778197,0.662293012259813,1.3388837565130098,0.9683157894736842,0.4841074776427173,0.0,0.9742631578947368,50,1151,1614,772021,no_split,wide,individual,1,0.7052938938140869
0,0.0,0.43119703748054866,0.37750734467898583,0.39243607219345633,0.4041324163145925,0.414518168711915,0.4246108244201777,0.4350799615391162,0.4475572257136184,0.4649716574912718,0.49235352312921404,0.841576821748316,0.9973684210526316,0.43619875041181044,0.0,0.9955380577427821,50,1151,161753,772021,no_split,wide,individual,1,0.7049176692962646
1,1.0,0.4411742763643747,0.3829739727629962,0.3989490205461332,0.4111336917893302,0.42265112855148806,0.4332808942836882,0.4463520395793573,0.46014786402147495,0.47845126900975815,0.5088929005510368,0.8993880853907256,0.993717277486911,0.43619875041181044,0.0,0.9955380577427821,50,1151,161753,772021,no_split,wide,individual,1,0.7049176692962646
0,0.0,0.469100847755118,0.3741655982341906,0.3961613641753083,0.413438258367757,0.4307294924262638,0.4492039841236176,0.4712706757642412,0.49583875706021696,0.529827244625866,0.5883217095721583,1.270929398407378,0.9842553191489362,0.473717908710346,0.0,0.9830606860158312,50,1151,1638,772021,no_split,wide,individual,1,0.7004117965698242
1,1.0,0.47826245038355475,0.3809512500149617,0.4049839373380903,0.42420323403902926,0.441745590245789,0.4593734001218542,0.47954039303905815,0.5049370893330629,0.5400201464541634,0.59615997432775,1.243334127619649,0.9818848167539267,0.473717908710346,0.0,0.9830606860158312,50,1151,1638,772021,no_split,wide,individual,1,0.7004117965698242
0,0.0,0.39797330825118776,0.3283485240680461,0.3460947297136166,0.36059141590327237,0.3737251377369996,0.3864205836379343,0.40098422751336804,0.41761762558190657,0.4403409556916161,0.4807518917101091,1.062805875259242,0.9850526315789474,0.4064336575418133,0.0,0.9747229551451188,50,1151,1657,772021,no_split,wide,individual,1,0.7157926559448242
1,1.0,0.4149387705852994,0.33768119205823016,0.35728724078908697,0.3730700625765997,0.3886835737931833,0.4031326769785001,0.41994233663392766,0.43903330824657444,0.46540600084283656,0.5068188402408327,0.9982234569585657,0.9643386243386244,0.4064336575418133,0.0,0.9747229551451188,50,1151,1657,772021,no_split,wide,individual,1,0.7157926559448242
0,0.0,0.4640319860179712,0.3794306506769465,0.398671895942046,0.4136763861156622,0.4286882848315225,0.4444142590659731,0.46265337773263787,0.48447582359562547,0.518419444734085,0.5738273174832395,0.9950576148101264,0.9919148936170212,0.4720034309538346,0.0,0.9882010582010582,50,1151,1663,772021,no_split,wide,individual,1,0.6970462799072266
1,1.0,0.4798909659430046,0.38845130834594704,0.4092767159354885,0.4265840005908277,0.44360531262011793,0.4613170470129879,0.48151546073269663,0.506014020296342,0.5418378550087024,0.5962085897714404,1.1821207401107463,0.9845263157894737,0.4720034309538346,0.0,0.9882010582010582,50,1151,1663,772021,no_split,wide,individual,1,0.6970462799072266
0,0.0,0.5136005353400955,0.4009640978607417,0.4295432115879139,0.45038358273095064,0.4701328918516049,0.49219879441359626,0.5156324801590806,0.5443745429555147,0.5854084851851886,0.6561214065656077,1.2921607915113256,0.9801075268817204,0.5206348981297235,0.0,0.9741018766756032,50,1151,1761,772021,no_split,wide,individual,1,0.7017607688903809
1,1.0,0.5276316440060381,0.4115890845574294,0.44144751017593514,0.46410410277646785,0.4854372773422734,0.5073364577190262,0.5331871124304903,0.5630099771187776,0.6015198692642253,0.6690168401949965,1.3325103209358573,0.9681283422459893,0.5206348981297235,0.0,0.9741018766756032,50,1151,1761,772021,no_split,wide,individual,1,0.7017607688903809
0,0.0,0.44551676450034167,0.3450918329873076,0.37114884004845167,0.3906431032630043,0.40911803996672425,0.427592812657981,0.4488201744180118,0.47392889136470245,0.50821042932308,0.5684588874301589,1.2166811005127913,0.9528795811518325,0.45171394928972763,0.0,0.9425130890052356,50,1151,1768,772021,no_split,wide,individual,1,0.7075271606445312
1,1.0,0.45791113407911366,0.3507817927923241,0.37883982736108013,0.3991511047210896,0.41923984612864174,0.43835941631659336,0.4611410405056226,0.48838850330367534,0.5250529995528338,0.5883469309286556,1.2860296804099798,0.9321465968586388,0.45171394928972763,0.0,0.9425130890052356,50,1151,1768,772021,no_split,wide,individual,1,0.7075271606445312
0,0.0,0.3772744975084176,0.3020076723931199,0.3216127777993565,0.3364629835647876,0.3508229945479131,0.3649033325255213,0.38097427317214544,0.3997557140708103,0.42454631037270135,0.46719114629778186,1.0138884644354078,0.9695744680851064,0.38143663684375206,0.0,0.9564893617021276,50,1151,1813,772021,no_split,wide,individual,1,0.7002644538879395
1,1.0,0.3855987761790866,0.30687920737195623,0.32845902356003387,0.344942979350267,0.3601444729608649,0.37450376082875847,0.39045407018820805,0.4094773213209197,0.43538417815461217,0.47810727859152763,0.9217441673887505,0.943404255319149,0.38143663684375206,0.0,0.9564893617021276,50,1151,1813,772021,no_split,wide,individual,1,0.7002644538879395
0,0.0,0.39265958192946937,0.3167606114531092,0.33596794148235376,0.35080675301202824,0.3640903615042,0.37873319061236455,0.394485990255755,0.41338941184559314,0.4407043126498787,0.4843642668600023,0.9231718991644982,0.9869473684210527,0.39578621725766855,0.0,0.9854068241469817,50,1151,1821,772021,no_split,wide,individual,1,0.6962120532989502
1,1.0,0.3988964827673955,0.3217280072839439,0.3410539434261077,0.3563903814343476,0.3707800035743745,0.3854556525883337,0.40236123587904865,0.4217422170553013,0.4488085302054495,0.49132045512610745,0.9087211121453028,0.9838743455497382,0.39578621725766855,0.0,0.9854068241469817,50,1151,1821,772021,no_split,wide,individual,1,0.6962120532989502
0,0.0,0.4426111289037483,0.35481204794412524,0.3763125035021368,0.39323732772012465,0.40958790611991486,0.4269182139167508,0.4453684440814371,0.4675574125817855,0.4983561409576183,0.5489832506397163,1.0345061301511422,0.991413612565445,0.4436974010057243,0.0,0.9911702127659574,50,1151,275,772021,no_split,wide,individual,1,0.6989917755126953
1,1.0,0.4448189035542509,0.3549737697668822,0.37721149788484126,0.39559712347536635,0.4120919469768536,0.42894342301112504,0.44806844158008635,0.47145134410301226,0.5024201535713081,0.553071054401589,1.0661665902754454,0.9909189189189189,0.4436974010057243,0.0,0.9911702127659574,50,1151,275,772021,no_split,wide,individual,1,0.6989917755126953
0,0.0,0.38098982521641794,0.3122773455001788,0.3273611025961446,0.3397017010909992,0.3513287377035923,0.3640449877598739,0.37898247573263744,0.3982138436222953,0.4250451607134163,0.4713588073611672,0.8852373380757087,0.9853191489361702,0.38536401532526493,0.0,0.9815915119363395,50,1151,3286,772021,no_split,wide,individual,1,0.6991896629333496
1,1.0,0.3897150615711022,0.31695547211807257,0.33319513045342997,0.3466108408195727,0.3602990945477846,0.374569664926897,0.39030037478312835,0.41100469629658404,0.43734365286088484,0.48242282237311374,1.080228948309782,0.9778835978835979,0.38536401532526493,0.0,0.9815915119363395,50,1151,3286,772021,no_split,wide,individual,1,0.6991896629333496
0,0.0,0.45576676349603884,0.36219088867315224,0.386334796685701,0.4055765927751093,0.42205493414921125,0.43919244807540003,0.45819409771074066,0.48259560915322586,0.5133982270505005,0.5681597947718287,1.1730863398994158,0.9884656084656085,0.46392243616723894,0.0,0.9834828496042216,50,1151,3292,772021,no_split,wide,individual,1,0.6971254348754883
1,1.0,0.4720351842454327,0.37250198984587624,0.39874675456749664,0.41837981154203446,0.437628707368397,0.45673149572099503,0.47726257596850763,0.5036097014991466,0.5356336388240077,0.5905856473201477,1.0682340327685766,0.9785263157894737,0.46392243616723894,0.0,0.9834828496042216,50,1151,3292,772021,no_split,wide,individual,1,0.6971254348754883
0,0.0,0.45108105257064324,0.37058146255432534,0.39151376052896697,0.4079641360231927,0.4238733666916415,0.43993181716000174,0.4571080959440703,0.4758755868370516,0.5020046315872397,0.5448513557771327,0.9455750183011415,0.9929473684210526,0.4547204286745456,0.0,0.9908136482939632,50,1151,337788,772021,no_split,wide,individual,1,0.7128396034240723
1,1.0,0.45834075045329653,0.3763458085467584,0.3981448224150749,0.4150755133291424,0.43146522314451263,0.44691465276623393,0.4640256721625208,0.4850666699383631,0.5106499732943793,0.5537621959237248,0.9599537554896121,0.9886910994764397,0.4547204286745456,0.0,0.9908136482939632,50,1151,337788,772021,no_split,wide,individual,1,0.7128396034240723
0,0.0,0.40382790582124756,0.3249532278948199,0.34337315340682106,0.35783101501681563,0.3716388312684482,0.3857903637395421,0.402785689390065,0.42279441357832104,0.4527918597162449,0.5061726095709258,1.0348404190605853,0.9847058823529412,0.4163188161470562,0.0,0.9743010752688172,50,1151,3487,772021,no_split,wide,individual,1,0.6946761608123779
1,1.0,0.428944763341252,0.3381126492170699,0.35958990098336063,0.37718759625213116,0.3940532536311797,0.4116601914950301,0.43167821707540904,0.456134680484866,0.4886660490768813,0.5432315336947806,1.0674126029629925,0.9637837837837838,0.4163188161470562,0.0,0.9743010752688172,50,1151,3487,772021,no_split,wide,individual,1,0.6946761608123779
0,0.0,0.4087443490699392,0.34475285141476336,0.36434884656107785,0.37790574566234963,0.39048382408310317,0.4028852208447198,0.41537151907609515,0.4293367436590774,0.44773223115223665,0.47807393018740824,0.7875164528042495,0.987434554973822,0.4151895262819927,0.0,0.9822222222222222,50,1151,3580,772021,no_split,wide,individual,1,0.7003488540649414
1,1.0,0.4217725682472452,0.35354825842530985,0.37280825306319004,0.3881818792346776,0.40207569352936806,0.4151349101642656,0.4286838936660603,0.44522636039159386,0.46497079511943273,0.4978290012922437,0.7751003298464532,0.9768983957219252,0.4151895262819927,0.0,0.9822222222222222,50,1151,3580,772021,no_split,wide,individual,1,0.7003488540649414
0,0.0,0.46939202657459855,0.3701873229801145,0.39629882699761554,0.4158013898877461,0.4332872939484303,0.45150890136558963,0.4720030250589781,0.4955913010515478,0.5296412456993905,0.5932539610902248,1.3405096334820408,0.9674725274725274,0.4817121661984719,0.0,0.9478453038674033,50,1151,3625,772021,no_split,wide,individual,1,0.6981546878814697
1,1.0,0.49416919626261047,0.38713248829684327,0.41477585394626776,0.43666149964672346,0.4568182454722069,0.47775341675929844,0.5012751318986665,0.5278732202890488,0.5635808602163632,0.6206984033092384,1.2956941542216465,0.928,0.4817121661984719,0.0,0.9478453038674033,50,1151,3625,772021,no_split,wide,individual,1,0.6981546878814697
0,0.0,0.545552107663262,0.4324163127268134,0.46142456070131244,0.48538480767181547,0.507274181182276,0.5282625004349839,0.5516699435883048,0.5796190627370071,0.6198775095094783,0.6801986857289062,1.2540323005635632,0.9973821989528796,0.5524036765318863,0.0,0.9954855643044619,50,1151,3754,772021,no_split,wide,individual,1,0.704627275466919
1,1.0,0.5592913062892927,0.44492753547355585,0.47650550313322326,0.5018667550788857,0.5236359486027506,0.545908734899659,0.5689300719635244,0.5957684051956048,0.630364932881298,0.6907041486354847,1.162644274238212,0.993578947368421,0.5524036765318863,0.0,0.9954855643044619,50,1151,3754,772021,no_split,wide,individual,1,0.704627275466919
0,0.0,0.4147630351407355,0.33964578284764896,0.3591766423451977,0.37425965796962163,0.38773148075144226,0.4017524768716064,0.417294446197175,0.4359088529815362,0.46144724835070217,0.5052911641607304,1.0560040201810525,0.9758730158730159,0.41905273424251344,0.0,0.971820580474934,50,1151,3910,772021,no_split,wide,individual,1,0.6929879188537598
1,1.0,0.4233198559805979,0.3469116451577985,0.3654141613421102,0.3800459802284215,0.395142958269552,0.40960481645866464,0.42665251337506044,0.44606989353443,0.472990600351541,0.5179223722002155,1.0777250788261157,0.9677894736842105,0.41905273424251344,0.0,0.971820580474934,50,1151,3910,772021,no_split,wide,individual,1,0.6929879188537598
0,0.0,0.40700852837800794,0.33824658855810097,0.35468725101576487,0.36791136058952356,0.37992522300123643,0.39317048358046836,0.40861199612714955,0.4264245162058496,0.45156102119218433,0.49393131263878437,0.8731903741575618,0.9834736842105263,0.4121176371193417,0.0,0.9758839050131927,50,1151,4222,772021,no_split,wide,individual,1,0.7027368545532227
1,1.0,0.4172537781820582,0.3504456829309196,0.36752675924080497,0.38056792923904065,0.39344944899248513,0.4064690896233971,0.42021393191616374,0.43657546208728926,0.4592041812130928,0.4982535217251704,1.0135782735208125,0.9682539682539683,0.4121176371193417,0.0,0.9758839050131927,50,1151,4222,772021,no_split,wide,individual,1,0.7027368545532227
0,0.0,0.44990126875449604,0.34508491448066886,0.36862325121474165,0.3869953911493728,0.4053041996741137,0.4254843532156892,0.4486964134408611,0.4772692427408988,0.5173236542238634,0.5881728938928634,1.1839431173983013,0.9565079365079365,0.4611150368364295,0.0,0.94005291005291,50,1151,4264,772021,no_split,wide,individual,1,0.7050766944885254
1,1.0,0.47232880491836304,0.3642819992346178,0.39021777345601083,0.4108833724823139,0.43058064162294535,0.45086833002750226,0.4739232063604961,0.5008882869242464,0.5404152832382023,0.6061603448689664,1.1269128437325795,0.9235978835978836,0.4611150368364295,0.0,0.94005291005291,50,1151,4264,772021,no_split,wide,individual,1,0.7050766944885254
0,0.0,0.4325249761482534,0.37333195685729686,0.38841123029278185,0.40001478921714656,0.41073339823729066,0.4218514699367798,0.4339686506773729,0.4489091736399803,0.4690619149589909,0.5033671222065166,0.8954527873677112,0.9927659574468085,0.43762658512698943,0.0,0.9904,50,1151,5281,772021,no_split,wide,individual,1,0.703768253326416
1,1.0,0.4427554754371624,0.37821723531597085,0.3939234084916154,0.40684789099521035,0.41946128046553655,0.4320804929155659,0.44490960143229924,0.462481280865193,0.484877370678769,0.5224641785795214,0.8169977319882014,0.9880213903743316,0.43762658512698943,0.0,0.9904,50,1151,5281,772021,no_split,wide,individual,1,0.703768253326416
0,0.0,0.46349828042550334,0.37667691694757316,0.39806277329266826,0.41510617548900125,0.4310376251986726,0.446488435699874,0.4650423431045533,0.48747860278864935,0.5186319728307554,0.5715307431758389,1.1278006318617138,0.9961904761904762,0.4687686580948139,0.0,0.9956266666666667,50,1151,5332,772021,no_split,wide,individual,1,0.7066915035247803
1,1.0,0.4741240418555648,0.3847393800321743,0.40606534919856524,0.4244760355322909,0.4410487587609903,0.45908575860175527,0.4775098590823175,0.5005062203126819,0.5310111180460984,0.5843883315348795,1.0695515756281297,0.9950537634408602,0.4687686580948139,0.0,0.9956266666666667,50,1151,5332,772021,no_split,wide,individual,1,0.7066915035247803
0,0.0,0.4443719365174621,0.3602806288074403,0.3813851948196774,0.3985906839071434,0.4145893074512406,0.4308191981466985,0.447718566300387,0.46869790046486154,0.49633014479577336,0.543677122434285,1.1152290314051663,0.9806315789473684,0.45517107196970774,0.0,0.969023746701847,50,1151,5575,772021,no_split,wide,individual,1,0.7032411098480225
1,1.0,0.4660273457047696,0.3732660794843787,0.39681036939161235,0.41628603790942986,0.43407950589946276,0.4525985989207987,0.47165217475239374,0.49466732034255795,0.5259947908431666,0.5768673929807733,1.0882955531969878,0.9573544973544974,0.45517107196970774,0.0,0.969023746701847,50,1151,5575,772021,no_split,wide,individual,1,0.7032411098480225
0,0.0,0.44358193220659853,0.36232255819519854,0.3805892482605353,0.3957234576033422,0.4104832952828331,0.42513350355643365,0.4421233626278263,0.463968724855052,0.4934773452092186,0.5483963933879605,1.0790735838267629,0.9739890710382514,0.4502977024211951,0.0,0.9624797843665768,50,1151,5731,772021,no_split,wide,individual,1,0.7049150466918945
1,1.0,0.456834861725829,0.3706348543561346,0.3900126806915709,0.4076049731328931,0.4230847096703746,0.43954715689999385,0.4587379341417837,0.4811517626071104,0.5139374215286854,0.5643572471315214,1.1845327805551746,0.9512765957446808,0.4502977024211951,0.0,0.9624797843665768,50,1151,5731,772021,no_split,wide,individual,1,0.7049150466918945
0,0.0,0.4266064492192951,0.3503486031158826,0.3728039805664267,0.39122476915307514,0.4056701048185945,0.4196882714442814,0.43508290382716935,0.4532187023195717,0.4749572589276898,0.5095697324939557,0.9557250398905321,0.992872340425532,0.4397276857030031,0.0,0.98026525198939,50,1151,5761,772021,no_split,wide,individual,1,0.709334135055542
1,1.0,0.45277949765505116,0.36875634106014943,0.39287433518863635,0.4112471690614436,0.4278557411650988,0.4450291338609917,0.46238912747923344,0.48260873719871167,0.5073829392879855,0.5471872292410243,0.9871307617364612,0.9677248677248678,0.4397276857030031,0.0,0.98026525198939,50,1151,5761,772021,no_split,wide,individual,1,0.709334135055542
0,0.0,0.42699632085537786,0.3303042207271842,0.35329639118456113,0.3712373563989672,0.38882493726008377,0.40786962321670317,0.42885651283565046,0.4526843984125667,0.4891491709198316,0.5495211971149807,1.1287742691034375,0.930625,0.4285114027509318,0.0,0.9290104166666666,50,1151,5803,772021,no_split,wide,individual,1,0.7159557342529297
1,1.0,0.4300264846464857,0.33411120319382936,0.3569230041042937,0.37543169138823806,0.39354729880812706,0.4118751888385399,0.43346927596177603,0.45885873340861055,0.4932921051774055,0.5491888259045293,1.0555865621859064,0.9273958333333333,0.4285114027509318,0.0,0.9290104166666666,50,1151,5803,772021,no_split,wide,individual,1,0.7159557342529297
0,0.0,0.4962270478825886,0.384259751113425,0.4141882866832318,0.4363314374901352,0.45654185683419374,0.4767506733795609,0.5001113149042642,0.5282869371272383,0.5687747758982701,0.6282992927400266,1.22353862976392,0.9776041666666667,0.5064037677643481,0.0,0.9659162303664921,50,1151,5815,772021,no_split,wide,individual,1,0.7796275615692139
1,1.0,0.5166876110132841,0.3968161095919803,0.4293068954505934,0.4537874297304912,0.47510163318425086,0.4973585309230398,0.5233802198245011,0.5551326579631715,0.5955256221447965,0.6608690006699163,1.376258535418562,0.9541052631578948,0.5064037677643481,0.0,0.9659162303664921,50,1151,5815,772021,no_split,wide,individual,1,0.7796275615692139
0,0.0,0.4170703155300876,0.35437581482540637,0.3686265597749525,0.38041864546027815,0.39158599942767724,0.4040768024474062,0.4179940168966398,0.4347321916984041,0.4572611023627835,0.49529094340789903,0.9246386829837127,0.9952631578947368,0.4255528884837371,0.0,0.9937566137566137,50,1151,6055,772021,no_split,wide,individual,1,0.7333340644836426
1,1.0,0.43412570157519126,0.36428769538136163,0.38061849317841817,0.39425026142603464,0.40755790216413473,0.42097106631034414,0.43630595994122884,0.4543848529573111,0.47969356697488946,0.5215037758388139,0.9646355049594887,0.9922340425531915,0.4255528884837371,0.0,0.9937566137566137,50,1151,6055,772021,no_split,wide,individual,1,0.7333340644836426
0,0.0,0.45769464019050626,0.3540747607755467,0.3783036141902658,0.39757677621421345,0.41545950116297803,0.435575474900042,0.4579469666149179,0.48461384478234254,0.5217311072193636,0.5937936375089725,1.4811459339875224,0.9727567567567568,0.4656253871722123,0.0,0.9654155495978552,50,1151,6109,772021,no_split,wide,individual,1,0.7182095050811768
1,1.0,0.4734295796808061,0.36727129138776277,0.3925746486576617,0.41338027347887235,0.4322029185151985,0.45287485446273945,0.47600174440606446,0.5052514482562157,0.5423737543982178,0.6043766513364363,1.3037519584269246,0.9581914893617022,0.4656253871722123,0.0,0.9654155495978552,50,1151,6109,772021,no_split,wide,individual,1,0.7182095050811768
0,0.0,0.38925192622673604,0.330006930088253,0.3451252245715752,0.35647581040653015,0.3678549140812365,0.37895833976967574,0.391517203224639,0.4066978122762325,0.42597279304981617,0.4611031269966469,0.9526957165842803,0.9927748691099476,0.4015143027863896,0.0,0.9818798955613577,50,1151,6214,772021,no_split,wide,individual,1,0.7209844589233398
1,1.0,0.41371281280146155,0.34049538273030405,0.35830361904749247,0.3726252689243091,0.3866020128529891,0.4016767078680101,0.4176011806578417,0.4363797954041941,0.46211176171291435,0.5010863962621285,0.9202053845122761,0.9710416666666667,0.4015143027863896,0.0,0.9818798955613577,50,1151,6214,772021,no_split,wide,individual,1,0.7209844589233398
0,0.0,0.4559007155638746,0.3552388400722215,0.38517138192674977,0.4068351682234793,0.42710045611568653,0.44687419133326395,0.4667117407020373,0.49007226406322585,0.5203236607529922,0.5663261444279599,1.0843220268328297,0.9612698412698413,0.4606221854916854,0.0,0.9488359788359788,50,1151,6253,772021,no_split,wide,individual,1,0.7235264778137207
1,1.0,0.4653436554194961,0.3628486967461189,0.3933770202430983,0.4161555813171934,0.4361194315672833,0.45566615901319796,0.4770000850476787,0.5005153804866415,0.5331436078984616,0.5788747735891178,1.0584899153617693,0.9364021164021163,0.4606221854916854,0.0,0.9488359788359788,50,1151,6253,772021,no_split,wide,individual,1,0.7235264778137207
0,0.0,0.4587751269937273,0.3743842065864048,0.39717244432313514,0.4160753161132298,0.4319015347660524,0.4474407588605433,0.4642604362430987,0.4849249232663428,0.510520780036801,0.5584956822539734,1.0022786342065986,0.9843157894736843,0.462332325333294,0.0,0.9824146981627296,50,1151,6262,772021,no_split,wide,individual,1,0.7216029167175293
1,1.0,0.46587089959778444,0.3812800071204639,0.4045159489922733,0.4215960855408006,0.43790798895410876,0.45458844622976535,0.47276681808595084,0.4941838175162745,0.5202111843128537,0.5646635514518217,1.1179003861907977,0.9805235602094241,0.462332325333294,0.0,0.9824146981627296,50,1151,6262,772021,no_split,wide,individual,1,0.7216029167175293
0,0.0,0.49181591187895846,0.39775888502655615,0.42201456477263144,0.4399041655545785,0.45798882447209693,0.47535967178839983,0.49554906939994664,0.5187319484007593,0.5516494674049548,0.6076755959942002,1.2257775382106713,0.9957894736842106,0.5045269540543301,0.0,0.9927894736842106,50,1151,6361,772021,no_split,wide,individual,1,0.7182047367095947
1,1.0,0.5172379962297017,0.4232563918554375,0.4478638684188634,0.46666775258630316,0.4854055522879297,0.5033599742806647,0.5228313658204748,0.5463458626425544,0.5779035123904677,0.6299235282661585,1.208893513963743,0.9897894736842106,0.5045269540543301,0.0,0.9927894736842106,50,1151,6361,772021,no_split,wide,individual,1,0.7182047367095947
0,0.0,0.41329227171498506,0.3450836907787917,0.3621872802520996,0.3772943285675161,0.39072123713596013,0.4037239047267215,0.4176978891175156,0.4336329894718642,0.45551574382058196,0.49313673237944655,0.8455621479789177,0.9908421052631579,0.41749669958726676,0.0,0.9862269129287599,50,1151,6427,772021,no_split,wide,individual,1,0.7129559516906738
1,1.0,0.42172337310966634,0.35055145796944065,0.36924300840609475,0.3836104482982725,0.39723447621178926,0.410646782526203,0.4263937631991332,0.4432925701406008,0.4676579434075407,0.5067904673359676,0.8605536288506239,0.9815873015873016,0.41749669958726676,0.0,0.9862269129287599,50,1151,6427,772021,no_split,wide,individual,1,0.7129559516906738
0,0.0,0.462477048162762,0.38268829641105045,0.40287751973947084,0.4191333904188322,0.4344326630860751,0.44983004171558677,0.4657017249111012,0.48531741411560386,0.5132464972322419,0.5570173158851428,0.9597645919668064,0.9781914893617021,0.4640122129243969,0.0,0.9772266666666667,50,1151,6583,772021,no_split,wide,individual,1,0.7167713642120361
1,1.0,0.46555558712325995,0.3849818996107242,0.40615899750234546,0.4222928813359315,0.437831331843176,0.4528780261576091,0.47022727087878774,0.4908273552622313,0.5176602185588134,0.5600404744367826,1.0571615836686212,0.9762566844919786,0.4640122129243969,0.0,0.9772266666666667,50,1151,6583,772021,no_split,wide,individual,1,0.7167713642120361
0,0.0,0.4424534990345312,0.3575877508186839,0.3811073433130077,0.39856086386723855,0.4145471864375636,0.43100724552145053,0.44880418079831225,0.46956768904287177,0.49589832678887136,0.5401605602302053,0.9505768648969652,0.9816931216931217,0.4502587411651999,0.0,0.9687700534759358,50,1151,6634,772021,no_split,wide,individual,1,0.7168540954589844
1,1.0,0.45823274528788316,0.3657472153833833,0.39028335190864477,0.4101844019825953,0.42767377164678455,0.44622904125568785,0.4660924944375556,0.4895595398805401,0.5181313705552046,0.5659265477686668,1.1093207594718624,0.9555675675675676,0.4502587411651999,0.0,0.9687700534759358,50,1151,6634,772021,no_split,wide,individual,1,0.7168540954589844
0,0.0,0.45599188710578564,0.3791877514362661,0.4001656165591923,0.4151491727607448,0.4296045951688008,0.44428673714127187,0.4603858714317877,0.4796232420417621,0.5045708610871166,0.5473916251204943,0.9518723957278212,0.9866666666666667,0.46178597697339013,0.0,0.9816710182767624,50,1151,6844,772021,no_split,wide,individual,1,0.7146515846252441
1,1.0,0.4676104023900399,0.3920799887218196,0.41221526638171146,0.42809458808379247,0.4431522223057712,0.4579549575994536,0.47365323197140935,0.492030355936802,0.5158587353387475,0.5554065636476165,1.0410192068643347,0.9766492146596859,0.46178597697339013,0.0,0.9816710182767624,50,1151,6844,772021,no_split,wide,individual,1,0.7146515846252441
0,0.0,0.43668470870062,0.3455942467478804,0.37108858596286,0.38873356464217984,0.4057700473314489,0.42239040221008256,0.4401767960363606,0.46056360238456334,0.4897716452256788,0.5445594416622346,1.23536462239951,0.9852631578947368,0.45758849967409504,0.0,0.9609947643979058,50,1151,7624,772021,no_split,wide,individual,1,0.7220096588134766
1,1.0,0.47827454282492976,0.3752409823910298,0.4030087428791696,0.4253838663705976,0.4453811909263727,0.4656175582409442,0.4871892975468184,0.5135224937462363,0.5460458001406723,0.5969048226602058,1.0614732122919486,0.9369791666666667,0.45758849967409504,0.0,0.9609947643979058,50,1151,7624,772021,no_split,wide,individual,1,0.7220096588134766
0,0.0,0.4111700919159087,0.33346377347253936,0.35358754014421595,0.3703661001556095,0.3849735789500549,0.3998872788937894,0.41533978734569604,0.43421484641991764,0.45996457743559355,0.5020543160778874,0.9445508035973419,0.9785416666666666,0.41686409039753136,0.0,0.9680104712041885,50,1151,7756,772021,no_split,wide,individual,1,0.7223145961761475
1,1.0,0.4226180257052764,0.3410644995357925,0.3626420856348072,0.3796880745235433,0.3952949370092446,0.4107066217291455,0.42802568736692936,0.4483255064817941,0.4744637285335269,0.5184307919579471,0.9276082824024909,0.9573684210526315,0.41686409039753136,0.0,0.9680104712041885,50,1151,7756,772021,no_split,wide,individual,1,0.7223145961761475
0,0.0,0.41886615643324726,0.32456307247774924,0.3538323203063797,0.37223695519166955,0.39052406278410934,0.40870400397868034,0.4266727621572201,0.4480839981832987,0.47627121204439804,0.5228790698102036,1.1158783670170138,0.984468085106383,0.43086731677695356,0.0,0.9681501340482573,50,1151,7768,772021,no_split,wide,individual,1,0.7178959846496582
1,1.0,0.4430630905316387,0.34233391959403103,0.37158122096836993,0.3941783088521599,0.4138094339109748,0.4318786535017607,0.452640648558483,0.4774571305304786,0.5079295142041356,0.5554559410809402,1.0308599655624175,0.9515675675675676,0.43086731677695356,0.0,0.9681501340482573,50,1151,7768,772021,no_split,wide,individual,1,0.7178959846496582
0,0.0,0.4073614318560388,0.31734576873396014,0.34004302244944234,0.3573416672068227,0.37376296990966196,0.3907567112043666,0.4092646843691832,0.4319364016543263,0.4629888744199206,0.520214881030851,1.2151880623803886,0.9571727748691099,0.4138737068933331,0.0,0.9418848167539267,50,1151,7807,772021,no_split,wide,individual,1,0.7106890678405762
1,1.0,0.42038598193062726,0.33039966076124994,0.3544844250536569,0.3728444642354871,0.38877787369232114,0.4066719786158926,0.4248975512127938,0.4471748764759518,0.4772704328921959,0.527218251415963,1.0647550304733617,0.9265968586387434,0.4138737068933331,0.0,0.9418848167539267,50,1151,7807,772021,no_split,wide,individual,1,0.7106890678405762
0,0.0,0.3988475569736561,0.3259291391288778,0.34162372933267193,0.3540773750732114,0.3663393751739852,0.38019087704729426,0.3969757844710508,0.41675302797150504,0.4448668452369628,0.49449531915791445,1.058119101528603,0.9802083333333333,0.40497757624212954,0.0,0.9717060367454068,50,1151,7813,772021,no_split,wide,individual,1,0.7189176082611084
1,1.0,0.4112048974037533,0.33645808154567186,0.35302500594545405,0.36653647922567406,0.3812912452089203,0.3962654760052793,0.41221874502827166,0.4319602880556413,0.4589104909938555,0.5070378020594063,0.9874317696765259,0.9630687830687831,0.40497757624212954,0.0,0.9717060367454068,50,1151,7813,772021,no_split,wide,individual,1,0.7189176082611084
0,0.0,0.41735882645737,0.3546686030506458,0.3716125994294345,0.3845864998335824,0.3974849876756693,0.40997078843197365,0.42192181721884936,0.4373782376227936,0.4576766081702468,0.4904685898757875,0.9038195438483337,0.9903664921465969,0.42033536543788885,0.0,0.9892670157068063,50,1151,7828,772021,no_split,wide,individual,1,0.7141802310943604
1,1.0,0.4233119044184077,0.3583866267652689,0.3761391937568148,0.3897575402231874,0.4025353219554228,0.4150815400799003,0.4276669153688993,0.4444703679772489,0.4642348746023017,0.4982914152735338,0.8783593593881774,0.9881675392670157,0.42033536543788885,0.0,0.9892670157068063,50,1151,7828,772021,no_split,wide,individual,1,0.7141802310943604
0,0.0,0.5457132795608537,0.4049235555283624,0.4326461819410159,0.4559109479120841,0.47980548251645705,0.5078622220865254,0.5417238384243571,0.5824161036414925,0.6381686381282266,0.7388241518047887,1.4542645236113765,0.9794708994708995,0.5532712872464476,0.0,0.975531914893617,50,1151,7840,772021,no_split,wide,individual,1,0.7160265445709229
1,1.0,0.5609101292388392,0.41643730105723126,0.4463730126600809,0.47283074128026414,0.49842986439310394,0.5252888634901176,0.5586964982592822,0.6007026954876165,0.6541457721812338,0.74952917959283,1.5097479118634571,0.9715508021390374,0.5532712872464476,0.0,0.975531914893617,50,1151,7840,772021,no_split,wide,individual,1,0.7160265445709229
0,0.0,0.45602071070133937,0.3732606813338951,0.39387088925993635,0.4103402533282771,0.4256172639610382,0.4422301320466463,0.45949240548610987,0.48066192197990004,0.5095145566917233,0.5563391879414896,0.9815838053816424,0.9991623036649214,0.4634191052991937,0.0,0.9987958115183246,50,1151,7924,772021,no_split,wide,individual,1,0.7140107154846191
1,1.0,0.4708174998970482,0.38840344075813227,0.40949727446990775,0.42698547101905876,0.4428557386177308,0.459735513100755,0.47657808720484773,0.49665221526615144,0.5224577897385217,0.566820392002577,0.986172056560622,0.9984293193717277,0.4634191052991937,0.0,0.9987958115183246,50,1151,7924,772021,no_split,wide,individual,1,0.7140107154846191
0,0.0,0.4515369226233336,0.3732755203176131,0.3950311236465375,0.41165390239359273,0.42667536431694186,0.44142302749209306,0.45690574742854767,0.4752605592498051,0.5003937392410259,0.5434892368807047,0.9646370257209083,0.9947089947089947,0.4599061046606459,0.0,0.9902387267904509,50,1151,7939,772021,no_split,wide,individual,1,0.7072210311889648
1,1.0,0.4683198036236886,0.38427580863605565,0.4073549088662465,0.42542796899602225,0.44163308580947014,0.4576352532527922,0.47540075925533254,0.4959790156353561,0.5211622338727745,0.5637414907872115,0.8732827474669131,0.9857446808510638,0.4599061046606459,0.0,0.9902387267904509,50,1151,7939,772021,no_split,wide,individual,1,0.7072210311889648
0,0.0,0.4499410869962331,0.3493704516534003,0.37492204638237375,0.3943140230916899,0.4130669524986471,0.4306224637256126,0.45075573336325,0.47650982215717946,0.5133539273457461,0.5777893961867357,1.1476640135292109,0.9675280898876405,0.46114845523071807,0.0,0.9479889807162535,50,1151,8026,772021,no_split,wide,individual,1,0.700676441192627
1,1.0,0.4719317608833576,0.36604176293532453,0.3948049375411621,0.4154014301762326,0.4350261589344277,0.45503747739738565,0.47744864744273874,0.5034221384839038,0.5398022491939154,0.5981212923772959,1.1799456790820995,0.9291891891891891,0.46114845523071807,0.0,0.9479889807162535,50,1151,8026,772021,no_split,wide,individual,1,0.700676441192627
0,0.0,0.4694364770892844,0.37027317562533857,0.3926784173429334,0.4105864625697921,0.4276101243719795,0.44612541443831716,0.4685585056766746,0.4961507276324563,0.532886875177745,0.5962380187270925,1.2052388155001017,0.982,0.4736142055128288,0.0,0.9805263157894737,50,1151,808,772021,no_split,wide,individual,1,0.6996927261352539
1,1.0,0.4777919339363732,0.3780986640585957,0.4014792401780178,0.4198771798085171,0.4385178983915341,0.4573054008955475,0.477716959271097,0.5041598719610944,0.5413662085596681,0.6038816406331332,1.4154604002188116,0.9790526315789474,0.4736142055128288,0.0,0.9805263157894737,50,1151,808,772021,no_split,wide,individual,1,0.6996927261352539
0,0.0,0.447574843928431,0.3429556009603293,0.3693516591955614,0.39025550533117875,0.409598583566001,0.4294326037720647,0.4514956347491545,0.47790739221807227,0.51236132485019,0.5730043316372234,1.1787633341084605,0.9451308900523561,0.450076031047532,0.0,0.942088772845953,50,1151,8311,772021,no_split,wide,individual,1,0.7046759128570557
1,1.0,0.4525641911503876,0.34553019175369815,0.37301948503380866,0.39436863840815173,0.4144625571051532,0.43467586441984624,0.4562949843204937,0.48370071306585344,0.5206995706401072,0.5810344330496037,1.2190113066259447,0.9390625,0.450076031047532,0.0,0.942088772845953,50,1151,8311,772021,no_split,wide,individual,1,0.7046759128570557
0,0.0,0.4570477995337007,0.37682495729692717,0.396252905304755,0.41080547381515065,0.4253380180697941,0.4407183616531163,0.4576097079158108,0.4779705574168532,0.5067635580920886,0.5566374248762472,1.217650771036622,0.978125,0.4628885795447397,0.0,0.9720634920634921,50,1151,833,772021,no_split,wide,individual,1,0.7022709846496582
1,1.0,0.46891777181419936,0.384144709452293,0.40486679728410674,0.4219544431820771,0.43778484091847875,0.45413557461953047,0.4718483747027858,0.4929492172225405,0.5240736979149638,0.5698697368095899,1.1779291010419093,0.9658064516129032,0.4628885795447397,0.0,0.9720634920634921,50,1151,833,772021,no_split,wide,individual,1,0.7022709846496582
0,0.0,0.551532944196263,0.38573426771549374,0.41953464403700685,0.4486297171521028,0.4773089367810063,0.5092556920921287,0.5462015923724498,0.592468647112137,0.660953081256382,0.7766730381561504,1.6057199213732742,0.9488043478260869,0.5625137361979472,0.0,0.9350810810810811,50,1151,837,772021,no_split,wide,individual,1,0.700861930847168
1,1.0,0.5733764551673552,0.4056966083788915,0.4438599233399247,0.47522141585975536,0.5038014709700868,0.5350694392622732,0.570957688425985,0.6185789655208288,0.6804721493085448,0.7873456242854892,1.578153362760083,0.921505376344086,0.5625137361979472,0.0,0.9350810810810811,50,1151,837,772021,no_split,wide,individual,1,0.700861930847168
0,0.0,0.39049306059958744,0.3228041409934085,0.3423908882959879,0.35646718749515843,0.369943214560202,0.3830975404678961,0.396681539085447,0.4124588026496057,0.43300055162400564,0.46667292737269506,0.7862506053863599,0.9890052356020942,0.3973712428864524,0.0,0.9814736842105263,50,1151,8446,772021,no_split,wide,individual,1,0.7009501457214355
1,1.0,0.404322210171062,0.33107263459900826,0.35121832139132747,0.36794392656255426,0.38286308844645606,0.39589637811760564,0.41092426930112347,0.42819067061846366,0.45147160836947475,0.4884982182382333,0.8693308589337887,0.9738624338624339,0.3973712428864524,0.0,0.9814736842105263,50,1151,8446,772021,no_split,wide,individual,1,0.7009501457214355
0,0.0,0.42359828957293,0.3464213593801388,0.36527957316034126,0.38021440518883914,0.3945402248467397,0.40997208233742843,0.4260920533900535,0.4452267261063177,0.4717945909736374,0.5195071243999277,1.0571174825872862,0.9722751322751323,0.42972342527334684,0.0,0.9644148936170213,50,1151,845,772021,no_split,wide,individual,1,0.7064087390899658
1,1.0,0.4359140704464952,0.3518450789644072,0.3725169111407459,0.3895926025752444,0.405125086254965,0.42196370315503856,0.4398806716609248,0.4615481671313538,0.4914052922041534,0.5396161704818815,1.1567457975842315,0.9564705882352941,0.42972342527334684,0.0,0.9644148936170213,50,1151,845,772021,no_split,wide,individual,1,0.7064087390899658
0,0.0,0.49147520912551396,0.39484665568971916,0.41867491957710457,0.43868049946169524,0.4558575919881534,0.4741380948932598,0.493692312381394,0.519549636832083,0.5537945710936538,0.6100364208861065,1.1360794060199795,0.9683769633507854,0.4934232571473351,0.0,0.9611052631578947,50,1151,8521,772021,no_split,wide,individual,1,0.7023568153381348
1,1.0,0.49539191943393723,0.39840416936046463,0.42369312363436634,0.44361221938327755,0.4616622902679749,0.4799637396780467,0.4998179856896793,0.5244865316631239,0.5573079300227721,0.6139321922397545,1.2757970280781064,0.9537566137566138,0.4934232571473351,0.0,0.9611052631578947,50,1151,8521,772021,no_split,wide,individual,1,0.7023568153381348
0,0.0,0.5536203967598914,0.42670836293098463,0.4548447669315583,0.4784532418516471,0.5013110411898564,0.5256946729085572,0.5536054853357426,0.5878978007515119,0.6356562336043967,0.7172818084726865,1.5422588603455274,0.9879347826086956,0.5555374787459988,0.0,0.9875268817204301,50,1151,8704,772021,no_split,wide,individual,1,0.6999247074127197
1,1.0,0.5574137717536787,0.4324660589739726,0.4602392689759205,0.48305564149019,0.5066811828241289,0.5315191461159068,0.5584336058851447,0.5919992749213846,0.6374556673810244,0.7135181896490868,1.5420340412835614,0.9871276595744681,0.5555374787459988,0.0,0.9875268817204301,50,1151,8704,772021,no_split,wide,individual,1,0.6999247074127197
0,0.0,0.44737034923296365,0.36440346573408944,0.3856794354906873,0.4018866390578589,0.41734476346520466,0.43299780720482817,0.45069934632623027,0.4722693069873288,0.5012446935612117,0.5482678459587144,1.0516919192943406,0.9969565217391304,0.4537891853039807,0.0,0.9958904109589041,50,1151,8755,772021,no_split,wide,individual,1,0.6979081630706787
1,1.0,0.46031441092313613,0.3739484398375958,0.396394367915927,0.41401838964801535,0.43069515753542137,0.44756566531203223,0.46511030871308967,0.48671228373727576,0.5158900686133312,0.5630313591073116,1.0617074429898816,0.9948066298342542,0.4537891853039807,0.0,0.9958904109589041,50,1151,8755,772021,no_split,wide,individual,1,0.6979081630706787
0,0.0,0.4522019902506229,0.3595716456260686,0.3846303546633926,0.40383401603320357,0.42075888956739876,0.4367703560093127,0.45486836800051406,0.4785494804047596,0.5104646257900327,0.5632681695631271,1.2843521974260748,0.9746875,0.4549670867483327,0.0,0.9718229166666666,50,1151,8785,772021,no_split,wide,individual,1,0.7018225193023682
1,1.0,0.4577321832460424,0.36378836030916717,0.38846727467055786,0.40809262389026896,0.42638558152446154,0.4428957183036106,0.46067438339843536,0.48583104928119525,0.5169529462711673,0.5675963646079275,1.0991794264608592,0.9689583333333334,0.4549670867483327,0.0,0.9718229166666666,50,1151,8785,772021,no_split,wide,individual,1,0.7018225193023682
0,0.0,0.41131340764989943,0.32416900542591137,0.34746324203796863,0.3648590169437255,0.3804966970578924,0.3966245262911782,0.41435788472527085,0.43583946308006744,0.4645961270180041,0.5138575143295868,1.2429241359011327,0.9857142857142858,0.4220203514292665,0.0,0.9743766578249337,50,1151,8788,772021,no_split,wide,individual,1,0.6949434280395508
1,1.0,0.4327842470372472,0.33655508515861116,0.36159283272244935,0.38045727619533637,0.39887527920717814,0.4180120563079537,0.43871618160897263,0.4629696133216102,0.4956425621546447,0.5502891375502528,1.0318492052010653,0.9629787234042553,0.4220203514292665,0.0,0.9743766578249337,50,1151,8788,772021,no_split,wide,individual,1,0.6949434280395508
0,0.0,0.4655374282255817,0.3603311608808948,0.37987655040692403,0.397389172936943,0.4162412728426642,0.4368711190995054,0.4613458528897943,0.49068523488935034,0.5344788473181269,0.6064884096983421,1.3359082962627484,0.9756613756613757,0.47621737173842016,0.0,0.9685106382978723,50,1151,916,772021,no_split,wide,individual,1,0.7028079032897949
1,1.0,0.4870115392460482,0.37084354899583094,0.39597768413413514,0.41571620461722825,0.4359256787682494,0.45827598096237004,0.48614144322570096,0.5190518710179705,0.564216816854325,0.6375436518366757,1.5325188452415464,0.9612834224598931,0.47621737173842016,0.0,0.9685106382978723,50,1151,916,772021,no_split,wide,individual,1,0.7028079032897949
0,0.0,0.4107524202074122,0.3337370329810434,0.35236586643637463,0.36746422054010724,0.38139395863703734,0.3953501413195034,0.4113985827540379,0.43107233115905164,0.45825471445810395,0.5063930307247604,1.169565382919977,0.9708421052631578,0.41821822313136947,0.0,0.9589501312335958,50,1151,985,772021,no_split,wide,individual,1,0.6953964233398438
1,1.0,0.42564493808190285,0.3412153447526595,0.3624099049441968,0.3796553292789953,0.3954757381268769,0.411202313899923,0.4290110489491915,0.45106010966976195,0.48022468773495613,0.5267227706278754,0.9509162188910913,0.9471204188481676,0.41821822313136947,0.0,0.9589501312335958,50,1151,985,772021,no_split,wide,individual,1,0.6953964233398438
0,0.0,0.4403573323867083,0.3551151050562256,0.3752074858404977,0.3909994358876831,0.4064899714167229,0.4215408871909525,0.4402746088718682,0.4614809140162883,0.4909326910511587,0.5469592492459183,1.3193247965640824,0.9890731707317073,0.4588433632124691,0.0,0.9751758793969849,50,1151,275,772021,no_split,narrow,individual,1,0.697486162185669
1,1.0,0.47847878455589365,0.37749348046267933,0.4027709302690248,0.42279238141450237,0.4418170556964335,0.4624587029009842,0.4837438792661439,0.5105625422517606,0.5444847364902003,0.6016121376449449,1.1101297544470035,0.9604145077720208,0.4588433632124691,0.0,0.9751758793969849,50,1151,275,772021,no_split,narrow,individual,1,0.697486162185669
0,0.0,0.46478797270636296,0.37305128020109324,0.3953223265739694,0.414557904960867,0.43058590081147624,0.4478986999001207,0.4670020275936498,0.490930263342772,0.5227334130228529,0.5769993632836602,1.1550538731171713,0.9856190476190476,0.4726579598576393,0.0,0.9780808080808081,50,1151,808,772021,no_split,narrow,individual,1,0.6997718811035156
1,1.0,0.4815434292219835,0.38844154496916183,0.41286511846476787,0.43116492562329184,0.44867007994867686,0.4662133120287735,0.48502891457571967,0.5093744232963072,0.5419176635084973,0.596906853394145,1.1242367849551287,0.9695698924731183,0.4726579598576393,0.0,0.9780808080808081,50,1151,808,772021,no_split,narrow,individual,1,0.6997718811035156
0,0.0,0.45821532428981493,0.3755791971500066,0.40004901402635684,0.41724396257707536,0.43225103297759015,0.447581459666065,0.46370291537305164,0.48266072192444026,0.5086586590264983,0.5511678005910228,1.0358863635872875,0.9768,0.47156588935554794,0.0,0.9517866666666667,50,1151,833,772021,no_split,narrow,individual,1,0.6991996765136719
1,1.0,0.48682367800209986,0.39272920373607156,0.41908001010551355,0.4390243717248667,0.4577504469151974,0.4753153689111561,0.4947742377931049,0.5173890829735471,0.5469210951767474,0.5927768741492148,1.071140679286323,0.9232,0.47156588935554794,0.0,0.9517866666666667,50,1151,833,772021,no_split,narrow,individual,1,0.6991996765136719
0,0.0,0.5649188770332394,0.3834775488872174,0.42250586469598006,0.4559633025563141,0.4863739674384412,0.5208325192431296,0.5602542401210237,0.6069347058696363,0.6808028091401039,0.8108785728151495,1.5935822597205003,0.9433507853403141,0.5816748846245137,0.0,0.9268085106382978,50,1151,837,772021,no_split,narrow,individual,1,0.7012450695037842
1,1.0,0.5989743302998294,0.4108186907987426,0.4536388752108575,0.4903326565316849,0.5229338758128421,0.5585874477415604,0.5997343433599529,0.6529586584725784,0.723327680330322,0.8442473295163083,1.6726207267216886,0.9097297297297298,0.5816748846245137,0.0,0.9268085106382978,50,1151,837,772021,no_split,narrow,individual,1,0.7012450695037842
0,0.0,0.4252254718934912,0.3490160738028089,0.3705644579508766,0.38578095797845874,0.40076850461672864,0.4151468631395547,0.43079046709377294,0.447624558909101,0.4717209058490769,0.513099705168443,1.0060250165719227,0.9796875,0.43665081944742906,0.0,0.9563101604278075,50,1151,845,772021,no_split,narrow,individual,1,0.691899299621582
1,1.0,0.44870393335048453,0.3612362503433429,0.38550671045206825,0.4037303019370118,0.4214624919216976,0.4387682336018399,0.45615386266499564,0.47735975953927945,0.5048236009437462,0.5492454225573626,0.9548322991043761,0.9316483516483517,0.43665081944742906,0.0,0.9563101604278075,50,1151,845,772021,no_split,narrow,individual,1,0.691899299621582
0,0.0,0.46345650427719237,0.3596305269817284,0.38025404780963784,0.3981001253427854,0.41516258044809295,0.43384243589499016,0.4559365275879561,0.4855288541012737,0.5285716011773506,0.6039274527746017,1.4212676345621746,0.9870391061452514,0.48370395740135064,0.0,0.9732786885245902,50,1151,916,772021,no_split,narrow,individual,1,0.6979658603668213
1,1.0,0.5030852093223361,0.3841994798518673,0.40968869391850604,0.4323488136720647,0.4553531323209937,0.47825168785410854,0.5040385989593855,0.5370216416279139,0.5827751028218773,0.6525171764762605,1.5094300996072554,0.9601069518716577,0.48370395740135064,0.0,0.9732786885245902,50,1151,916,772021,no_split,narrow,individual,1,0.6979658603668213
0,0.0,0.4141453187011747,0.34000222411094655,0.35808823343888785,0.3729787400003917,0.3866197873488535,0.40066723768800133,0.4148606456619862,0.43454973589381934,0.4588360013329343,0.503501491637489,1.319873348993226,0.9740112994350283,0.4301571830239753,0.0,0.9416802168021681,50,1151,985,772021,no_split,narrow,individual,1,0.6974389553070068
1,1.0,0.44491812044655715,0.3552197527962598,0.37765461124109195,0.3953713045887933,0.41216901724962324,0.42942473550227994,0.4500454923196062,0.4720280848323572,0.503602868008576,0.5568158259310536,0.917187708766267,0.911875,0.4301571830239753,0.0,0.9416802168021681,50,1151,985,772021,no_split,narrow,individual,1,0.6974389553070068
0,0.0,0.4087883738261308,0.33761640097534285,0.3559419171661754,0.36936551000010354,0.3825230129685309,0.3949626631072508,0.40972614588300804,0.42731763256459165,0.45032577747903857,0.49199609907612196,1.0308840603852216,0.9819318181818182,0.434176277764147,0.0,0.9328421052631579,50,1151,1108,772021,no_split,narrow,individual,1,0.6886794567108154
1,1.0,0.4560795674361609,0.3643363590872988,0.3885283300286059,0.4073125048398325,0.4254945752398377,0.44413659259325455,0.46380575782088423,0.48692852448611557,0.5163954048527488,0.5609736227161372,1.1398206941477802,0.8904901960784314,0.434176277764147,0.0,0.9328421052631579,50,1151,1108,772021,no_split,narrow,individual,1,0.6886794567108154
0,0.0,0.43819159431624416,0.34949116529391133,0.37382520231297534,0.3920833339075568,0.40871031398324253,0.4248337376448936,0.4425175777190562,0.46305664301965627,0.49014345550065325,0.5404917542996864,1.2156260089098363,0.9674371859296482,0.45388010238738935,0.0,0.9208353808353809,50,1151,1507,772021,no_split,narrow,individual,1,0.6906387805938721
1,1.0,0.46888978078237914,0.37053509008972846,0.3979789814688008,0.4186794984608953,0.43670498549879494,0.4555429188076952,0.4757312770127012,0.5008820487290501,0.5320496998502523,0.5839722928243096,1.0202191514118026,0.87625,0.45388010238738935,0.0,0.9208353808353809,50,1151,1507,772021,no_split,narrow,individual,1,0.6906387805938721
0,0.0,0.4550219285754331,0.3639478830488702,0.38741300240757176,0.40577070780575786,0.4218172266350262,0.4389349306893303,0.45759591303467195,0.4809870334881331,0.5124887318087673,0.5658189357837309,1.1859410700806594,0.9808602150537634,0.46326080760787,0.0,0.9728795811518325,50,1151,1538,772021,no_split,narrow,individual,1,0.6998093128204346
1,1.0,0.4710793356692644,0.3739443331882398,0.40002011312542957,0.4196705915738312,0.43750667911949526,0.4561122264065006,0.47584793790709445,0.5010769552922731,0.5321042089092117,0.5860141013959597,1.1973090175652892,0.9653061224489796,0.46326080760787,0.0,0.9728795811518325,50,1151,1538,772021,no_split,narrow,individual,1,0.6998093128204346
0,0.0,0.46356024795666184,0.37056688260736964,0.3945387347340859,0.4129074878723114,0.42873101719103646,0.444488733109204,0.4637851106430609,0.48569111706349444,0.5159066737699836,0.5770746416705503,1.1183506584140497,0.9924468085106383,0.49010522257991496,0.0,0.97,50,1151,1582,772021,no_split,narrow,individual,1,0.6951756477355957
1,1.0,0.5181414879123395,0.41104880350531836,0.44067631221763226,0.46351375963713237,0.484116297056225,0.5056768872365096,0.5268539053910888,0.552188096976945,0.5871289087002773,0.6406368331514642,1.1328145799115477,0.9462921348314607,0.49010522257991496,0.0,0.97,50,1151,1582,772021,no_split,narrow,individual,1,0.6951756477355957
0,0.0,0.43992287636392025,0.3507979145937473,0.3712540852192544,0.3872409886575476,0.4023131176305056,0.4172259628797994,0.4345684809004686,0.45563280088268804,0.48802691998941444,0.5563878713705557,1.3119081106352883,0.9846231155778894,0.4717901145822514,0.0,0.9392481203007519,50,1151,1583,772021,no_split,narrow,individual,1,0.696246862411499
1,1.0,0.5034980166094909,0.39686137003033994,0.4237790566782656,0.4461746678529445,0.4661279234643324,0.48634741925199376,0.5087817387797902,0.5355368867181487,0.5699029167755394,0.6296010653291859,1.2748556486265326,0.8941,0.4717901145822514,0.0,0.9392481203007519,50,1151,1583,772021,no_split,narrow,individual,1,0.696246862411499
0,0.0,0.5423238978127568,0.404053219226656,0.4308434032977618,0.4541552717963396,0.4768187338291358,0.5012731782407465,0.5326381704308732,0.5740391682858549,0.6323502769905388,0.7334449340775671,1.5152079620798957,0.9714754098360656,0.5585429154641793,0.0,0.9576923076923077,50,1151,1597,772021,no_split,narrow,individual,1,0.6961410045623779
1,1.0,0.5749411487802585,0.43307962365756486,0.4630565765474955,0.4910640410162475,0.517622962296592,0.544026842348267,0.5774842919004426,0.6158370994516522,0.6665499764951959,0.75427124698423,1.5412450954217172,0.9437569060773481,0.5585429154641793,0.0,0.9576923076923077,50,1151,1597,772021,no_split,narrow,individual,1,0.6961410045623779
0,0.0,0.4146861484420619,0.3296294311257499,0.35483418343989853,0.37201239380952045,0.38795084049405804,0.4031621466688433,0.42037711338411077,0.44071494974168396,0.46567639505570935,0.509957476464737,1.1365550821222337,0.9909289617486339,0.43903794893252945,0.0,0.96336,50,1151,1601,772021,no_split,narrow,individual,1,0.6998963356018066
1,1.0,0.4622482587750062,0.35572436185552836,0.3854141394325721,0.4063976882882496,0.4273687419722596,0.4475057216518197,0.46956000507369083,0.4971978971527045,0.5316563145135067,0.5870789019470565,1.0615691377858012,0.9370833333333334,0.43903794893252945,0.0,0.96336,50,1151,1601,772021,no_split,narrow,individual,1,0.6998963356018066
0,0.0,0.48271804122107437,0.36629431033044546,0.39500184612635586,0.4159413889119054,0.436534451351919,0.4574859677539175,0.48080397790432683,0.5108839361355382,0.5525541835789274,0.629514942911959,1.427737639148098,0.9837623762376237,0.5054327409862795,0.0,0.9631720430107527,50,1151,1614,772021,no_split,narrow,individual,1,0.7022130489349365
1,1.0,0.5324231489425819,0.4019837262300532,0.4361526021268234,0.4618838806722748,0.4872314810930563,0.5118386946965057,0.5407483628071925,0.5732891292112132,0.6153021784371403,0.6869141578033465,1.420398018756196,0.9387058823529412,0.5054327409862795,0.0,0.9631720430107527,50,1151,1614,772021,no_split,narrow,individual,1,0.7022130489349365
0,0.0,0.4700183106780345,0.376993938797405,0.4042417456178551,0.42437699854674643,0.4419861975843641,0.4589115118734507,0.4773997492829908,0.498898210323493,0.5266490695529223,0.5752658948911906,1.0822860616142034,0.9917127071823204,0.490593529909011,0.0,0.9742105263157895,50,1151,1638,772021,no_split,narrow,individual,1,0.7039337158203125
1,1.0,0.5093076740336678,0.40422486530553137,0.4351912991638524,0.4582268647742325,0.47899378080862587,0.4987841359710229,0.5191248412700933,0.5434474431397751,0.5758172388070449,0.6278844706658662,1.0653856157394432,0.9582914572864322,0.490593529909011,0.0,0.9742105263157895,50,1151,1638,772021,no_split,narrow,individual,1,0.7039337158203125
0,0.0,0.4019495448261596,0.3258351941371715,0.3469023705296865,0.36274825172740494,0.3772714189577129,0.39111825228033104,0.4059042569550678,0.42346415374620844,0.44832378916152216,0.48880279095358004,0.9965231021052608,0.9733673469387755,0.4163176377493404,0.0,0.9350404312668463,50,1151,1657,772021,no_split,narrow,individual,1,0.7089951038360596
1,1.0,0.4324099018233028,0.344213325474971,0.36730237858968606,0.38470090739816987,0.40159698172027136,0.4192927025588189,0.4370300355285757,0.4599801705443042,0.49036713968681467,0.5395344329193059,1.062845787704146,0.8921142857142857,0.4163176377493404,0.0,0.9350404312668463,50,1151,1657,772021,no_split,narrow,individual,1,0.7089951038360596
0,0.0,0.458082302562679,0.3735150725907067,0.3954586483703082,0.4129276280040528,0.4287407347097455,0.44446950041053424,0.4608148218893117,0.4804584685193802,0.5079218969551954,0.558660271868332,1.1191978742359943,0.9906666666666667,0.4770410429087143,0.0,0.9747208121827411,50,1151,1663,772021,no_split,narrow,individual,1,0.7049527168273926
1,1.0,0.4956187030467892,0.39930284490913304,0.42500023736961506,0.4448339108187584,0.46373265076196113,0.4825209776809345,0.5035368140430437,0.5277381791267247,0.5576617497028153,0.6072583880851978,1.12980874431289,0.9590954773869347,0.4770410429087143,0.0,0.9747208121827411,50,1151,1663,772021,no_split,narrow,individual,1,0.7049527168273926
0,0.0,0.4986350464714038,0.39410454814449064,0.420101533717141,0.44088397922831746,0.459400617113489,0.47870142484830125,0.4999203422739815,0.5253579262625268,0.5637670564168376,0.6255703339414932,1.3937625326821104,0.9786740331491712,0.5110479830126595,0.0,0.9659668508287292,50,1151,1761,772021,no_split,narrow,individual,1,0.7030637264251709
1,1.0,0.5234609195539153,0.4094842728163743,0.43775254746102565,0.4607640679321476,0.4819561884901508,0.5032733319316856,0.5275370098917642,0.5567173477173616,0.5950657424850377,0.6614780126562771,1.5377701515323092,0.9532596685082873,0.5110479830126595,0.0,0.9659668508287292,50,1151,1761,772021,no_split,narrow,individual,1,0.7030637264251709
0,0.0,0.45273101862452164,0.3509787436103742,0.3767511013720594,0.3979472558531541,0.41730309442930036,0.436281494843754,0.45745208945036103,0.4815387377451583,0.5171459066191465,0.5752862896192482,1.217063824643153,0.9676086956521739,0.46654077618870715,0.0,0.9418378378378378,50,1151,1768,772021,no_split,narrow,individual,1,0.708160400390625
1,1.0,0.48020204173607356,0.36886714227306117,0.3974882123656522,0.4208489229869835,0.44185600618660525,0.46335837494841486,0.48660524782598424,0.5160183677766661,0.5516682908869229,0.6144234933259107,1.3208585810584441,0.9163440860215054,0.46654077618870715,0.0,0.9418378378378378,50,1151,1768,772021,no_split,narrow,individual,1,0.708160400390625
0,0.0,0.37896489014203877,0.3001074753697892,0.3230006002519553,0.34056235418110775,0.35627958395519793,0.3705373438417451,0.3859437953004873,0.4038283476275175,0.42627538716903624,0.46459007208824854,0.9730831692012428,0.973854748603352,0.3962213282119389,0.0,0.9266310160427808,50,1151,1813,772021,no_split,narrow,individual,1,0.7097539901733398
1,1.0,0.4120618534145652,0.3184416602915575,0.3431295918821033,0.3632302141836485,0.3821950464102729,0.40118734766180986,0.42152190235253156,0.4436853023296031,0.47272788335512567,0.5206049526507628,0.8875049336724985,0.8832820512820513,0.3962213282119389,0.0,0.9266310160427808,50,1151,1813,772021,no_split,narrow,individual,1,0.7097539901733398
0,0.0,0.39875824764298057,0.3139314692408199,0.3336425631182798,0.3492984325080665,0.3638171846603832,0.3791734445073237,0.39651272177959546,0.41750253259373393,0.4491791711320383,0.5083279486169594,1.1721934792727629,0.984780487804878,0.4195551823783329,0.0,0.9629207920792079,50,1151,1821,772021,no_split,narrow,individual,1,0.7023000717163086
1,1.0,0.44097916037203766,0.33820167565018844,0.36351039598218593,0.3843162761078259,0.4032027741584507,0.4232211696311937,0.4457555804763774,0.47159210768754917,0.5069706192804132,0.566257529464854,1.2210170202377595,0.9404020100502513,0.4195551823783329,0.0,0.9629207920792079,50,1151,1821,772021,no_split,narrow,individual,1,0.7023000717163086
0,0.0,0.3984231811195892,0.3199682979332682,0.33874263516807895,0.3528207538438388,0.3666780786238786,0.3800505886647359,0.3968365024938079,0.41755946552823914,0.4498629112318818,0.49749337797384924,1.1366267029782526,0.9861878453038674,0.40808721178615576,0.0,0.9764893617021276,50,1151,3286,772021,no_split,narrow,individual,1,0.7013530731201172
1,1.0,0.41705741460999446,0.3322713485744644,0.3513760175348392,0.3675823224311096,0.3833501070287308,0.40007538171945345,0.41865505860870317,0.44184954846787455,0.47209314226997795,0.5249165327107852,0.9914723367013437,0.9674871794871794,0.40808721178615576,0.0,0.9764893617021276,50,1151,3286,772021,no_split,narrow,individual,1,0.7013530731201172
0,0.0,0.4727790782126875,0.3733486156052389,0.3996027800070722,0.41970890675404726,0.43763412510009514,0.4556059455978478,0.4752712613723949,0.4994490830182499,0.5303571868888602,0.5867549873102302,1.2451160854187637,0.9840909090909091,0.4944633052952282,0.0,0.9653296703296703,50,1151,3292,772021,no_split,narrow,individual,1,0.7072982788085938
1,1.0,0.5147634327767557,0.40220148179593307,0.4330887053662663,0.4549854898555313,0.47630131017461397,0.49823218055547525,0.5227160371949666,0.5515555682689809,0.5893332117319063,0.6452984203571663,1.2977851490539578,0.9477659574468085,0.4944633052952282,0.0,0.9653296703296703,50,1151,3292,772021,no_split,narrow,individual,1,0.7072982788085938
0,0.0,0.3962781871566964,0.3236576496031441,0.3451770212472432,0.3607067626183872,0.3744573398141355,0.38784206726652726,0.4021205552821581,0.41857889695330985,0.4389586913776202,0.4734719954518145,0.9447645276925382,0.9902673796791444,0.4214968982298161,0.0,0.9381818181818182,50,1151,3487,772021,no_split,narrow,individual,1,0.7041866779327393
1,1.0,0.4453145697988735,0.35567882774241066,0.3809502002733242,0.40064512800192403,0.41924013814347183,0.4373486690588023,0.45513624351400606,0.4768403364576776,0.5033810204874387,0.5439204434174477,1.0756984973633335,0.888989898989899,0.4214968982298161,0.0,0.9381818181818182,50,1151,3487,772021,no_split,narrow,individual,1,0.7041866779327393
0,0.0,0.4137790766087986,0.3527946517214039,0.37164083921653013,0.3856834360024312,0.3983782483481614,0.4102543208532474,0.42237373384412236,0.4350173500043984,0.45104837421018623,0.47680307172149866,0.7592635418098341,0.9851741293532338,0.4258359249872177,0.0,0.9467005076142132,50,1151,3580,772021,no_split,narrow,individual,1,0.7119631767272949
1,1.0,0.43839253910152964,0.36836629687392725,0.39007129389070533,0.40568811127613186,0.4196040468749301,0.432778476493887,0.44714196680106627,0.46315767595456675,0.4830522029420286,0.5149912636723079,0.7231471953240429,0.9066321243523316,0.4258359249872177,0.0,0.9467005076142132,50,1151,3580,772021,no_split,narrow,individual,1,0.7119631767272949
0,0.0,0.4835616131654418,0.37654924909411014,0.4018998050714294,0.4213538893308935,0.4396335360863378,0.45916816876963606,0.48207561611594035,0.5097410312096797,0.5500049089772893,0.6235508579749504,1.404074209703259,0.9424731182795699,0.4956014316040282,0.0,0.9113812154696133,50,1151,3625,772021,no_split,narrow,individual,1,0.715008020401001
1,1.0,0.5083253306357162,0.39331046684307536,0.42113954006423987,0.4428724652887723,0.4647717599076143,0.48645083190158706,0.5125693968741976,0.5425619152212257,0.5831081008504114,0.650192630581679,1.2745863700366198,0.8785227272727273,0.4956014316040282,0.0,0.9113812154696133,50,1151,3625,772021,no_split,narrow,individual,1,0.715008020401001
0,0.0,0.526707031143925,0.42385394192032017,0.45126164870149815,0.4738865698567673,0.4932990683414693,0.5130455549590511,0.5352702181182855,0.558848361354822,0.591519462842061,0.6467099042919786,1.0794684312602267,0.9947191011235955,0.5489294867995311,0.0,0.9849322493224932,50,1151,3754,772021,no_split,narrow,individual,1,0.7169020175933838
1,1.0,0.5696394192953316,0.44811997199741876,0.4818537810401899,0.5083972019853066,0.5320796680788304,0.5563932672559656,0.5806643863938205,0.6104055566128819,0.6481388878694938,0.7078813624511192,1.151251160823865,0.9758115183246073,0.5489294867995311,0.0,0.9849322493224932,50,1151,3754,772021,no_split,narrow,individual,1,0.7169020175933838
0,0.0,0.41419994435917157,0.34088688500652004,0.3604160132490938,0.37614829681097994,0.39043603184572,0.40421755379337054,0.4185533640769077,0.43635282610233983,0.45944215652977416,0.4985578694595229,1.2233275255599911,0.9938297872340426,0.4292689323465057,0.0,0.9848186528497409,50,1151,3910,772021,no_split,narrow,individual,1,0.7097501754760742
1,1.0,0.44357686033447963,0.3589638728915173,0.38266164422835325,0.40056565371125574,0.41697072661280327,0.43332588557388074,0.4508164904571767,0.47139244897397453,0.49845778944925395,0.5424712887009605,0.931297148502656,0.9762626262626263,0.4292689323465057,0.0,0.9848186528497409,50,1151,3910,772021,no_split,narrow,individual,1,0.7097501754760742
0,0.0,0.4020387739549508,0.34046705726382825,0.35493815744753676,0.36608101941798443,0.37682465603474,0.3880738959072545,0.40086469329338664,0.41629734752280617,0.44040278726190885,0.480653314672284,1.0048735843773657,0.9913812154696132,0.41650614664633767,0.0,0.9808421052631578,50,1151,4222,772021,no_split,narrow,individual,1,0.7066085338592529
1,1.0,0.42966491276262425,0.35622376354742713,0.37394445586623554,0.3887062139590903,0.40284648723197836,0.4176365296683897,0.43349933830900084,0.452673364170643,0.477053824043195,0.5180318387613165,0.9842059905707242,0.9712562814070351,0.41650614664633767,0.0,0.9808421052631578,50,1151,4222,772021,no_split,narrow,individual,1,0.7066085338592529
0,0.0,0.46242193722091357,0.35199779308103113,0.37982658404710995,0.4010307719713126,0.42103828882442534,0.4412330743191806,0.4635170935871501,0.491008825050055,0.5293638924648134,0.5977114786652801,1.351043684343827,0.9517171717171717,0.47884072222700036,0.0,0.9097229219143577,50,1151,4264,772021,no_split,narrow,individual,1,0.7091822624206543
1,1.0,0.4951770007757702,0.3742515717095327,0.40490854287360667,0.43059934472479683,0.4525761263828434,0.47588667029557796,0.5020502528972374,0.5314381887886401,0.5731056253847249,0.6416001357809887,1.310554663723489,0.8679396984924623,0.47884072222700036,0.0,0.9097229219143577,50,1151,4264,772021,no_split,narrow,individual,1,0.7091822624206543
0,0.0,0.4258483740043646,0.3573679005133122,0.3770797566390705,0.3931561846674138,0.4056953498130828,0.4179980072126543,0.4324608484575908,0.448945100793061,0.4692608559147947,0.5023255194709124,0.8631339837902021,0.9956613756613757,0.443001205979245,0.0,0.9816304347826087,50,1151,5281,772021,no_split,narrow,individual,1,0.7067623138427734
1,1.0,0.46111229672367193,0.3795565365114665,0.40219383107469064,0.4207696980518116,0.43615283745558786,0.4523821100665672,0.46941295838886427,0.48951968417906944,0.5143295519842597,0.5544918053676646,0.8804770670672931,0.9668156424581006,0.443001205979245,0.0,0.9816304347826087,50,1151,5281,772021,no_split,narrow,individual,1,0.7067623138427734
0,0.0,0.4501075739405338,0.36680576931493725,0.38891166430320806,0.4050640830499707,0.42038577486126666,0.43557803780318277,0.4520932507178914,0.47255340974386617,0.5001622865024034,0.5503202810547646,1.079800440701661,0.9956521739130435,0.47380772284023476,0.0,0.9865945945945946,50,1151,5332,772021,no_split,narrow,individual,1,0.7025504112243652
1,1.0,0.49725303142918614,0.4024068103975573,0.4296095494040999,0.44930877095774924,0.4678042857629036,0.4858194340150095,0.5056602364417294,0.5283414714879154,0.5574811204288997,0.6040315575215589,1.2573450612248798,0.9776344086021506,0.47380772284023476,0.0,0.9865945945945946,50,1151,5332,772021,no_split,narrow,individual,1,0.7025504112243652
0,0.0,0.4538993603808272,0.37453621688936706,0.3967876456564142,0.41325387745710834,0.4292678034434808,0.4442377609520139,0.4598812719679773,0.4794358113676935,0.5042613310060434,0.5437571132388689,0.9872146153179346,0.9872081218274111,0.4695745858527415,0.0,0.9613333333333334,50,1151,5575,772021,no_split,narrow,individual,1,0.7090473175048828
1,1.0,0.48557468646397,0.394414269487242,0.421275558470094,0.4406567186309334,0.4588217690304083,0.47652531336836335,0.49476489808651436,0.5160674984480116,0.5434707519951798,0.5882197604821015,1.051475387310146,0.9349222797927461,0.4695745858527415,0.0,0.9613333333333334,50,1151,5575,772021,no_split,narrow,individual,1,0.7090473175048828
0,0.0,0.45161399095277704,0.36258261949587395,0.38644900450906794,0.4043996123690231,0.42024225671446763,0.43661531801852804,0.4548478608822531,0.47583972996406826,0.5060461580564586,0.5555820520963745,1.1994718705223824,0.9671502590673575,0.4652919926767805,0.0,0.9338265306122449,50,1151,5731,772021,no_split,narrow,individual,1,0.710338830947876
1,1.0,0.47855759233875383,0.3817307790730145,0.40869202430479257,0.42946233885666246,0.4473681515999433,0.46673924399079814,0.48739320845037976,0.5117031268889796,0.5429149634111518,0.5885929608070097,0.9422807797377918,0.9015075376884422,0.4652919926767805,0.0,0.9338265306122449,50,1151,5731,772021,no_split,narrow,individual,1,0.710338830947876
0,0.0,0.43965359913620944,0.359714989036857,0.3836860818482502,0.40168007280225404,0.4173891585170148,0.4329384035866705,0.44818489836663983,0.4653618451927995,0.48687328942276187,0.5240264093888984,1.0296853418701395,0.9955434782608695,0.46464575094417376,0.0,0.9580926430517711,50,1151,5761,772021,no_split,narrow,individual,1,0.7124395370483398
1,1.0,0.48977447188770074,0.3978913131179558,0.4249970411682258,0.44557904443554097,0.46395569835168804,0.483347586630716,0.5027151402983646,0.5242910867382131,0.5502126170727678,0.5911305135924764,0.9581636780841725,0.9204371584699453,0.46464575094417376,0.0,0.9580926430517711,50,1151,5761,772021,no_split,narrow,individual,1,0.7124395370483398
0,0.0,0.443914158848495,0.33473565047810366,0.36209933411787026,0.38233398182154144,0.4014569830227738,0.42165247391477423,0.445211733342296,0.4734947257162007,0.5129107106667576,0.5787019242601456,1.240426987255957,0.9410714285714286,0.45189037457551434,0.0,0.9200542005420054,50,1151,5803,772021,no_split,narrow,individual,1,0.7043077945709229
1,1.0,0.4585570623473514,0.3516488919010394,0.3776364822160445,0.39861349995248185,0.4189471737827118,0.43863487915118365,0.4612377148374694,0.48904655569035815,0.5249670469454337,0.5883665033790678,1.2728781724528477,0.9024875621890547,0.45189037457551434,0.0,0.9200542005420054,50,1151,5803,772021,no_split,narrow,individual,1,0.7043077945709229
0,0.0,0.49760021697333123,0.37694839691314524,0.4084145320726907,0.4324278841511226,0.4551923416804366,0.4784554720257145,0.501661068315405,0.5322663953932045,0.57077043082362,0.640714685690674,1.4111015528647057,0.9753233830845771,0.5181970792199567,0.0,0.9417054263565892,50,1151,5815,772021,no_split,narrow,individual,1,0.7062456607818604
1,1.0,0.5404549787445361,0.4062648440099994,0.44307719645904886,0.4715042666200484,0.49805270549087327,0.5249295044295941,0.5534150483459652,0.5851140919337395,0.626761088919199,0.6948201267939214,1.4937896588101016,0.9053763440860215,0.5181970792199567,0.0,0.9417054263565892,50,1151,5815,772021,no_split,narrow,individual,1,0.7062456607818604
0,0.0,0.4179631583551942,0.35365975330704663,0.3708417384159321,0.3840513004795554,0.3956711935430387,0.40671491556248407,0.4196967845079587,0.43506650674711944,0.4555844543356807,0.4929220678764135,0.9373084762885955,0.9960674157303371,0.44504183207180475,0.0,0.9796185286103543,50,1151,6055,772021,no_split,narrow,individual,1,0.7061219215393066
1,1.0,0.47054449832342726,0.3817448535888521,0.4049606304025102,0.42331667561256886,0.4398555272399047,0.4575259702353548,0.47647396541716985,0.4993197034387939,0.5277226144347058,0.5759089161000569,1.008173840076646,0.9641269841269842,0.44504183207180475,0.0,0.9796185286103543,50,1151,6055,772021,no_split,narrow,individual,1,0.7061219215393066
0,0.0,0.4690266135402835,0.3600112963515353,0.38373537243095385,0.4037899447527942,0.42210845023854543,0.4426291624741221,0.4645680468974642,0.4946980391527472,0.5392189173990221,0.6130434594573897,1.3950397926403333,0.9574489795918367,0.4802916046779811,0.0,0.9390710382513662,50,1151,6109,772021,no_split,narrow,individual,1,0.6969494819641113
1,1.0,0.493279476813209,0.37876074118311115,0.406170340701075,0.42867704128050793,0.4499143440921692,0.4712657681691849,0.49504600477917476,0.5255428703375143,0.5665685616998674,0.633347189601497,1.5772590390975376,0.9178823529411765,0.4802916046779811,0.0,0.9390710382513662,50,1151,6109,772021,no_split,narrow,individual,1,0.6969494819641113
0,0.0,0.4004479867450941,0.3320998406268496,0.3495853389102089,0.36230435778243353,0.3741795902318664,0.38603866952039767,0.3999410380018561,0.41560989073422216,0.4393922192266611,0.48510878120452794,1.1196392086840383,0.9896226415094339,0.4240383905965945,0.0,0.9470023980815347,50,1151,6214,772021,no_split,narrow,individual,1,0.6958699226379395
1,1.0,0.44843432043326814,0.36530185303624957,0.3873704362312483,0.4055290652848998,0.42189748883763484,0.4383149209772663,0.45541998156063274,0.474851631186521,0.5009996613008058,0.541804374177717,1.0284641502627005,0.9029268292682927,0.4240383905965945,0.0,0.9470023980815347,50,1151,6214,772021,no_split,narrow,individual,1,0.6958699226379395
0,0.0,0.4615543048384495,0.3610701277491191,0.38731559829193135,0.4086008426214599,0.42783307494260453,0.4460941568277058,0.4666219791547279,0.4915482189552163,0.5244490492472816,0.581945704635622,1.2460907685666742,0.9482978723404255,0.46727475931017143,0.0,0.9377718832891246,50,1151,6253,772021,no_split,narrow,individual,1,0.701887845993042
1,1.0,0.47296494682701645,0.36821216959230824,0.3963724990729605,0.4177980795254373,0.4371518190824676,0.45796186263527655,0.48029192371708634,0.5050823644550144,0.5401112878429359,0.5978613020117776,1.044437703563356,0.9273015873015873,0.46727475931017143,0.0,0.9377718832891246,50,1151,6253,772021,no_split,narrow,individual,1,0.701887845993042
0,0.0,0.46374997138831914,0.3775665980781715,0.4040265305727945,0.42332015567132836,0.44024496854871525,0.4564580101230366,0.47328878905317723,0.49278748245317494,0.5163674098570826,0.5554358660063581,1.0893381724155302,0.9816574585635359,0.4795415972313566,0.0,0.9489673913043478,50,1151,6262,772021,no_split,narrow,individual,1,0.7004189491271973
1,1.0,0.4948265398922645,0.39793179005692003,0.4264988866339751,0.4489425417040818,0.4684610050163396,0.48674835270378786,0.5070244583872969,0.5294778555039383,0.5573018442529822,0.6019253360689524,1.1954278693172227,0.9173262032085562,0.4795415972313566,0.0,0.9489673913043478,50,1151,6262,772021,no_split,narrow,individual,1,0.7004189491271973
0,0.0,0.500208321609102,0.40899929704724414,0.4329649941358035,0.45122659496698597,0.46851363459145673,0.48520080720186665,0.5036011728687192,0.5269467599095479,0.5567488917908932,0.6102385033769558,1.2863199250021349,0.993475935828877,0.5162564358306776,0.0,0.9822282608695653,50,1151,6361,772021,no_split,narrow,individual,1,0.6923155784606934
1,1.0,0.5328365317391562,0.4341487427558915,0.4609209308947507,0.48202348795167427,0.5006198736049939,0.5187153434878315,0.5396899184840933,0.5646643713108283,0.5977563608278009,0.649018641075238,1.3671431544744352,0.9706077348066299,0.5162564358306776,0.0,0.9822282608695653,50,1151,6361,772021,no_split,narrow,individual,1,0.6923155784606934
0,0.0,0.41957948307521276,0.3410188510405594,0.36306477310052226,0.3802563414899634,0.39511748628056376,0.40955840543976385,0.4257069730875139,0.44451157769422633,0.4680294611252032,0.5078740877966035,0.9711241842845557,0.9820765027322405,0.43092517821210025,0.0,0.9637894736842105,50,1151,6427,772021,no_split,narrow,individual,1,0.6872959136962891
1,1.0,0.4414645802935743,0.3606736618071874,0.3851556144649892,0.4020028050937161,0.4188704061956614,0.4335709447180998,0.45023422515280537,0.469026732448642,0.49211706827410806,0.5316320362524852,0.946653233748729,0.9468020304568527,0.43092517821210025,0.0,0.9637894736842105,50,1151,6427,772021,no_split,narrow,individual,1,0.6872959136962891
0,0.0,0.4657278296058925,0.3849025828174073,0.40290558569319135,0.41715989361553896,0.4317417457625841,0.44674724635338314,0.46491725074959267,0.48734171461066794,0.5195233856126064,0.5723455927879421,1.1401798881342975,0.9826178010471204,0.47627453151234644,0.0,0.9708707124010554,50,1151,6583,772021,no_split,narrow,individual,1,0.6949243545532227
1,1.0,0.4869895318534779,0.4034426074517388,0.42469505611367986,0.4411026639335277,0.45688520043292985,0.47297441339300816,0.4899937204175511,0.5116737128717818,0.5404940597861633,0.5880219178370079,1.0639783007845443,0.958936170212766,0.47627453151234644,0.0,0.9708707124010554,50,1151,6583,772021,no_split,narrow,individual,1,0.6949243545532227
0,0.0,0.4433935537946532,0.3611562594714032,0.38383399304990334,0.4009181623213088,0.4166606203451018,0.43148634526510415,0.4475940618419081,0.4672256171222377,0.4934212489262859,0.5352926710847998,1.1410143856189727,0.9869743589743589,0.46573941773443156,0.0,0.9576923076923077,50,1151,6634,772021,no_split,narrow,individual,1,0.6897172927856445
1,1.0,0.48808528167421006,0.3877703893521925,0.41617339799818565,0.4369730362570693,0.4569615700438528,0.4769329362872033,0.4987930887853005,0.5224829095278508,0.5528704130551834,0.6007107532162478,0.9917587033540929,0.9284102564102564,0.46573941773443156,0.0,0.9576923076923077,50,1151,6634,772021,no_split,narrow,individual,1,0.6897172927856445
0,0.0,0.45876615089775546,0.38277081015500375,0.40492575634497896,0.4207749743273205,0.4358810607467869,0.44963840231184693,0.4650954656561038,0.4817217806911803,0.5029889245706692,0.5411006939833516,1.0643810262622815,0.9918947368421053,0.486530741349898,0.0,0.9505066666666667,50,1151,6844,772021,no_split,narrow,individual,1,0.6926965713500977
1,1.0,0.5150457261385848,0.413581554965123,0.4413920542487568,0.4626828735332999,0.48394964752423675,0.5037559326409156,0.5248867883084926,0.5488034372578983,0.5817399782821411,0.62913270439302,1.248209820022243,0.908,0.486530741349898,0.0,0.9505066666666667,50,1151,6844,772021,no_split,narrow,individual,1,0.6926965713500977
0,0.0,0.44302742842270587,0.357042326659863,0.3805518821511925,0.39804218018968235,0.413841476597412,0.42952030136955555,0.4464609685564427,0.46615178552723224,0.49466584650953027,0.5419147037432996,1.19155893265134,0.9844808743169399,0.46439401726959056,0.0,0.9482288828337875,50,1151,7624,772021,no_split,narrow,individual,1,0.6898550987243652
1,1.0,0.48564448335100313,0.38305939883392776,0.41112604219578947,0.43288108232542866,0.4516807439208038,0.4718835619476778,0.4932195361611264,0.5204996982473797,0.5537802669262496,0.6056954749865167,1.1486905795212345,0.9121739130434783,0.46439401726959056,0.0,0.9482288828337875,50,1151,7624,772021,no_split,narrow,individual,1,0.6898550987243652
0,0.0,0.40955740712333205,0.3439247934732982,0.3609666671174058,0.3739065751837167,0.38551452654465657,0.39695091520884873,0.41042446305071545,0.4257949078351136,0.44732672038302784,0.48699930088259324,0.9513414074416582,0.9845989304812834,0.43114785924774485,0.0,0.9363968668407311,50,1151,7756,772021,no_split,narrow,individual,1,0.6840488910675049
1,1.0,0.4517469130603225,0.3658911740865587,0.38855048932790515,0.4055213863705854,0.4225685670091497,0.43951280521612046,0.458132365910392,0.47997304426588683,0.5078846283483841,0.5510191563255159,1.2151079319914373,0.8904081632653061,0.43114785924774485,0.0,0.9363968668407311,50,1151,7756,772021,no_split,narrow,individual,1,0.6840488910675049
0,0.0,0.4349242078397877,0.3398498582945983,0.3680101654090993,0.38679411438836225,0.405257732996006,0.4230577280920994,0.44195575189778985,0.464350664588442,0.49394262284466134,0.5416858886215213,1.001012657742031,0.9852083333333334,0.44593971050948256,0.0,0.9758288770053476,50,1151,7768,772021,no_split,narrow,individual,1,0.6848995685577393
1,1.0,0.45756046057861116,0.3564815371723284,0.3851527421320661,0.4083174389137085,0.4270224658845305,0.44731034644301293,0.4676882132480048,0.4910421006299778,0.5213904751908897,0.5709151294365717,1.2298392444903663,0.9659340659340659,0.44593971050948256,0.0,0.9758288770053476,50,1151,7768,772021,no_split,narrow,individual,1,0.6848995685577393
0,0.0,0.40160262818014686,0.31626450935914546,0.33864755671783997,0.35618467281334987,0.3719247839263611,0.3873008709532645,0.4033548409169921,0.42239841782349524,0.45025411540977656,0.5005803751473492,1.0341177116113944,0.9779679144385027,0.425530717323725,0.0,0.9256451612903226,50,1151,7807,772021,no_split,narrow,individual,1,0.6836366653442383
1,1.0,0.4497174885120986,0.34551695948804007,0.37208708783680877,0.3941507779570138,0.41539486906347456,0.4358842778080142,0.4582502302043146,0.4829007190766353,0.5172554038145479,0.5710183274420029,1.1516969338768586,0.8727567567567568,0.425530717323725,0.0,0.9256451612903226,50,1151,7807,772021,no_split,narrow,individual,1,0.6836366653442383
0,0.0,0.39956658787792704,0.32795986229880303,0.3456538514394847,0.35935842933337975,0.3723743690208798,0.38518508289180126,0.39934499151906333,0.4172141012669007,0.4425057305285089,0.4875037469430833,0.936022143440825,0.986043956043956,0.41659230112216666,0.0,0.9649861495844876,50,1151,7813,772021,no_split,narrow,individual,1,0.6756823062896729
1,1.0,0.4339033615157512,0.3500115205840517,0.3716278007490703,0.38933532783698377,0.4057682008240095,0.42215155414018013,0.439844024373832,0.45941463429134777,0.4878730328951976,0.5311934656660245,0.9707077186131944,0.9435754189944134,0.41659230112216666,0.0,0.9649861495844876,50,1151,7813,772021,no_split,narrow,individual,1,0.6756823062896729
0,0.0,0.41048616782946296,0.34978914184331344,0.36860989158541174,0.3821213754991174,0.3941025884215128,0.40533437795682803,0.41698984194517424,0.4304673097366214,0.4477809622160165,0.47351888171966405,0.8967787911735773,0.9974468085106383,0.43685163978009833,0.0,0.9691089108910891,50,1151,7828,772021,no_split,narrow,individual,1,0.6871740818023682
1,1.0,0.45979936536676247,0.38473831917202633,0.4072396974317107,0.42421358508727186,0.4393908171474043,0.4540735903865858,0.46976587369935935,0.48734663076920937,0.5094796133454802,0.5414051046659332,0.86247597052479,0.9444444444444444,0.43685163978009833,0.0,0.9691089108910891,50,1151,7828,772021,no_split,narrow,individual,1,0.6871740818023682
0,0.0,0.5332486782194211,0.40109316689380264,0.43044264691844936,0.4537406515023833,0.47586892285932164,0.4990647947996085,0.5272795057579432,0.5635472012583523,0.6160138194077934,0.7054613154740793,1.523168786284788,0.9862433862433863,0.5566052093209004,0.0,0.9737984496124031,50,1151,7840,772021,no_split,narrow,individual,1,0.6896235942840576
1,1.0,0.578900079917767,0.4339398872232649,0.4694505154257607,0.49818652039020656,0.5240750311797834,0.5521190559133035,0.5824491325592664,0.6197269463399869,0.6716698650703035,0.7577456433488301,1.5542446990110956,0.961919191919192,0.5566052093209004,0.0,0.9737984496124031,50,1151,7840,772021,no_split,narrow,individual,1,0.6896235942840576
0,0.0,0.4744448596036684,0.39353568561297,0.4135834912505157,0.4301423079415371,0.44536412573610146,0.45980048776372084,0.476331899016441,0.49712567940749464,0.5235635045958201,0.5727771927873083,1.082979412598614,0.999,0.4983860785406562,0.0,0.9949866666666667,50,1151,7924,772021,no_split,narrow,individual,1,0.684551477432251
1,1.0,0.5204856652517219,0.42622134375370546,0.4515754494233006,0.47192598305787425,0.49104726536733023,0.5110451178453475,0.5303203655946872,0.5528970326213416,0.5823783259318489,0.6255980272443235,1.1630582461657388,0.9912820512820513,0.4983860785406562,0.0,0.9949866666666667,50,1151,7924,772021,no_split,narrow,individual,1,0.684551477432251
0,0.0,0.4618043924823015,0.375438154330149,0.3978100131735231,0.41543603213487534,0.4307113093196179,0.4476002578011938,0.46497448454010787,0.4862718713855495,0.5138085283555616,0.5650552787666822,1.0591882308243992,0.9903157894736843,0.4792375033047178,0.0,0.9775696202531645,50,1151,7939,772021,no_split,narrow,individual,1,0.6865959167480469
1,1.0,0.49539502065232305,0.3996876812393955,0.42586497228318376,0.4462926345939769,0.46504107712048653,0.4833345816799735,0.5023252874141326,0.5264374172702923,0.5575544075556023,0.6063985777495106,1.069387573405915,0.9657560975609756,0.4792375033047178,0.0,0.9775696202531645,50,1151,7939,772021,no_split,narrow,individual,1,0.6865959167480469
0,0.0,0.45290398540272786,0.36536877278182545,0.3873735425166588,0.40444042143705433,0.41978805357261934,0.43493622823849487,0.45265853463732514,0.4756842122188881,0.5075657824520969,0.56205797263319,1.160837737204462,0.9675151515151516,0.4673723723063417,0.0,0.9396610169491525,50,1151,8026,772021,no_split,narrow,individual,1,0.6804349422454834
1,1.0,0.4800035037301316,0.382868268580423,0.40796341251866663,0.4283418846555719,0.44677569610361245,0.4655681920624003,0.4845393128352843,0.509590489803829,0.5417378843973418,0.5970992531659425,1.2523295075134868,0.9153439153439153,0.4673723723063417,0.0,0.9396610169491525,50,1151,8026,772021,no_split,narrow,individual,1,0.6804349422454834
0,0.0,0.4471859969863381,0.34383924947013017,0.3700185239069386,0.38893738557944935,0.4069118272608699,0.4248777811691976,0.4461979653841247,0.47420229704368194,0.5103768588984502,0.5779584227255399,1.2251380961081269,0.9421390374331551,0.457914484156039,0.0,0.9136986301369863,50,1151,8311,772021,no_split,narrow,individual,1,0.6887772083282471
1,1.0,0.46918542292420806,0.3597869040681907,0.38772370078626356,0.40927975699513847,0.4299125673934287,0.45020483089599966,0.4733485763111307,0.5025612823284494,0.5409594252986265,0.5987490209318098,1.1646924941511898,0.8838202247191012,0.457914484156039,0.0,0.9136986301369863,50,1151,8311,772021,no_split,narrow,individual,1,0.6887772083282471
0,0.0,0.387982044475386,0.3191260303189811,0.3407812086266698,0.3558687627488999,0.3695891120191779,0.3819701319572447,0.3950917564810422,0.41083094039141743,0.42897507508897265,0.4611222201605629,1.0264930472646383,0.9917098445595854,0.41034907334393655,0.0,0.9305691056910569,50,1151,8446,772021,no_split,narrow,individual,1,0.6859970092773438
1,1.0,0.4348765538645629,0.3466870436795913,0.37274857458028826,0.3926139195212036,0.41052521078742266,0.42776956523561827,0.44576713933987244,0.4664372823220089,0.49173568167817017,0.5310784313113424,0.861133136048124,0.8635227272727273,0.41034907334393655,0.0,0.9305691056910569,50,1151,8446,772021,no_split,narrow,individual,1,0.6859970092773438
0,0.0,0.48752191625038976,0.40351972306596157,0.425785326355954,0.44296223128091744,0.45784412318843587,0.4744165279980285,0.4910920694200667,0.5122050613244288,0.5394282598376342,0.585600932154918,1.1854488837639925,0.9834170854271357,0.4975152957590296,0.0,0.9718441558441558,50,1151,8521,772021,no_split,narrow,individual,1,0.691220760345459
1,1.0,0.5082071372763379,0.41721912094022784,0.4413060325713387,0.4600311060738527,0.4777823211911541,0.49564866843318184,0.5140815868008575,0.5366481413368293,0.5669539666242425,0.6167487546089855,1.0390098977855229,0.9594623655913979,0.4975152957590296,0.0,0.9718441558441558,50,1151,8521,772021,no_split,narrow,individual,1,0.691220760345459
0,0.0,0.5478799824254618,0.42920015065538697,0.4601296391366695,0.483143830016031,0.5051734102796399,0.5265063539022151,0.5512098474740427,0.5801794873683989,0.6202859259183999,0.6904770305832441,1.3813123368902314,0.9916939890710382,0.5595448472606541,0.0,0.9854441260744986,50,1151,8704,772021,no_split,narrow,individual,1,0.8768761157989502
1,1.0,0.5724043066874024,0.44654390298246305,0.47952595579822155,0.5054001948864304,0.5300182753202419,0.5542299515096315,0.5810071715950171,0.6126537922029307,0.6530699768709916,0.7198670640210589,1.2697398689077313,0.9785542168674699,0.5595448472606541,0.0,0.9854441260744986,50,1151,8704,772021,no_split,narrow,individual,1,0.8768761157989502
0,0.0,0.44528120825038553,0.3589294489275896,0.3814046247837241,0.39865669704045065,0.4143220213023616,0.4308934518098964,0.4487514520109141,0.46824801538999056,0.4976645183578136,0.5485130367189978,1.1211231545501628,0.9943961352657005,0.461875705862624,0.0,0.9866494845360825,50,1151,8755,772021,no_split,narrow,individual,1,0.7025368213653564
1,1.0,0.4808539434633608,0.3807350054811491,0.40734516377185964,0.4277371320077808,0.4472928937554082,0.4670226579354707,0.48860170918010815,0.5135610958168293,0.545347242930147,0.5951107477193665,1.0666706800901096,0.9777900552486188,0.461875705862624,0.0,0.9866494845360825,50,1151,8755,772021,no_split,narrow,individual,1,0.7025368213653564
0,0.0,0.46460615744937717,0.366765737554613,0.39216185265140024,0.4129714178021328,0.431672395063078,0.449797590162309,0.470557029128513,0.4940335503662374,0.5265950820478428,0.5829031962930922,1.1580428854487872,0.9736538461538462,0.47558799980894473,0.0,0.95545,50,1151,8785,772021,no_split,narrow,individual,1,0.711925745010376
1,1.0,0.4874849956984765,0.392217011566676,0.4201291196975658,0.44105176344380626,0.45983631603776853,0.4774994407208204,0.4962960754725288,0.5175265189363996,0.5450678280977784,0.5926153316499114,1.0126306506873746,0.9357291666666666,0.47558799980894473,0.0,0.95545,50,1151,8785,772021,no_split,narrow,individual,1,0.711925745010376
0,0.0,0.40470460524834795,0.3252213990289627,0.34471499220816065,0.35944500812555236,0.37319761561556547,0.38729698068502516,0.40371811077763076,0.42210550778922823,0.4488621100423214,0.5005699214922246,1.0593760240602503,0.976063829787234,0.43167550595784443,0.0,0.918611825192802,50,1151,8788,772021,no_split,narrow,individual,1,0.6903340816497803
1,1.0,0.45690202005428876,0.3550384265100265,0.3815803621595676,0.40143390886471764,0.4209950527690644,0.4404338093771007,0.4618769567611351,0.4894981632117025,0.5237587343801426,0.5773541758395352,1.2397269747793074,0.8648756218905472,0.43167550595784443,0.0,0.918611825192802,50,1151,8788,772021,no_split,narrow,individual,1,0.6903340816497803
0,0.0,0.4334288688307874,0.37622556840021926,0.39323576749935607,0.4046250042411823,0.4151209303765867,0.4252482653509438,0.4374424962452461,0.45029228559046086,0.46736242806417777,0.4966887204668736,0.9829260598859564,0.9938888888888889,0.45266166766096627,0.0,0.9692896174863388,50,1151,161753,772021,no_split,narrow,individual,1,0.6899986267089844
1,1.0,0.4712740536256554,0.4024460891310214,0.4224706037937672,0.43681202108952255,0.45032111227343524,0.4637409583484394,0.4786722528881118,0.4944785430474399,0.5149295982779959,0.548795910441339,0.9412622373213786,0.9454838709677419,0.45266166766096627,0.0,0.9692896174863388,50,1151,161753,772021,no_split,narrow,individual,1,0.6899986267089844
0,0.0,0.44768613841210203,0.372773943846504,0.3932494838245535,0.40757310405221225,0.4220266845167451,0.4359594996280498,0.45131808110446936,0.46993721457297877,0.4935005308427329,0.5342142576079856,1.264879838101691,0.9977319587628866,0.4664915181634933,0.0,0.9895744680851064,50,1151,337788,772021,no_split,narrow,individual,1,0.6886930465698242
1,1.0,0.48653681306332786,0.39517980802214164,0.42137428223761925,0.44000582342946737,0.4573511462222557,0.47474797463347473,0.493600119405044,0.5163757323463605,0.5449431580681064,0.5914065975980181,0.9815601506807571,0.9808791208791209,0.4664915181634933,0.0,0.9895744680851064,50,1151,337788,772021,no_split,narrow,individual,1,0.6886930465698242
