,congruency,mean_rt,qu10_rt,qu20_rt,qu30_rt,qu40_rt,qu50_rt,qu60_rt,qu70_rt,qu80_rt,qu90_rt,qu100_rt,mean_acc,mean_rt_overall,nonconvergent_trials,accuracy_overall,n_posterior_draws,condition,id,slurm_id,split,spacing,estimation_level,number_parts,time_post_sampling_sec
0,0.0,0.4203755321389872,0.3242654189326749,0.3429816668427153,0.36042395838909147,0.37858846049603956,0.3981985200660878,0.42095548089666357,0.4485035582519216,0.4872715015846347,0.546470746751235,1.3132636635165447,0.9912631578947368,0.4297704165722927,0.0,0.9813756613756613,50,506,1108,772000,no_split,wide,individual,1,0.7132799625396729
1,1.0,0.439265246584676,0.3404792586269753,0.36500057510679135,0.3857669199985627,0.40454310564408597,0.4234043786051111,0.44513287795090917,0.4697667973672378,0.5031224480864938,0.5554262516092529,1.2446727870336718,0.9713829787234043,0.4297704165722927,0.0,0.9813756613756613,50,506,1108,772000,no_split,wide,individual,1,0.7132799625396729
0,0.0,0.43075170990000666,0.340490241894176,0.3602329703764365,0.3775600693923709,0.3948752350266253,0.4120594188709569,0.43237124081564926,0.45464684648697984,0.487682418787312,0.5427551169009487,1.1985113209890004,0.9912169312169312,0.45741791402142135,0.0,0.9846842105263158,50,506,1507,772000,no_split,wide,individual,1,0.6980981826782227
1,1.0,0.4838048908745488,0.34848504008986925,0.3804220837954012,0.4105451666048202,0.43889803221956325,0.467610931094523,0.49832685747724476,0.5322750155699434,0.5750674638518901,0.6388599906104518,1.3458869964428646,0.9782198952879582,0.45741791402142135,0.0,0.9846842105263158,50,506,1507,772000,no_split,wide,individual,1,0.6980981826782227
0,0.0,0.4545276146333864,0.3558359280155635,0.3768652659655353,0.39632046974359925,0.415404663167844,0.4355047129199101,0.4575049929638499,0.48552314463948215,0.5203741311923503,0.5781911145032214,1.2022664593726298,0.9903157894736843,0.46522714412641036,0.0,0.9860892388451443,50,506,1538,772000,no_split,wide,individual,1,0.6982169151306152
1,1.0,0.47587065514041316,0.36340273483419216,0.39186456434751665,0.41448685141218755,0.43665303480960144,0.45950558685649917,0.48395619462530604,0.5135231446394821,0.5501891309228673,0.607767129215771,1.2294038938425285,0.9818848167539267,0.46522714412641036,0.0,0.9860892388451443,50,506,1538,772000,no_split,wide,individual,1,0.6982169151306152
0,0.0,0.46903806938847115,0.3598076948890957,0.3836767550394544,0.4067251629472845,0.42913665631688436,0.45156004110735365,0.4750147444351968,0.504867990724702,0.542911012128394,0.5993124818617939,1.1447224663735733,0.9952173913043478,0.4754452245001044,0.0,0.9922162162162163,50,506,1582,772000,no_split,wide,individual,1,0.7032063007354736
1,1.0,0.4817834854707525,0.37513665631688436,0.4036882451547142,0.4257250909761907,0.44568824515471417,0.4678457460466121,0.49072519379203894,0.5179989318575956,0.5533666558926703,0.6039470215841886,1.044269043083375,0.989247311827957,0.4754452245001044,0.0,0.9922162162162163,50,506,1582,772000,no_split,wide,individual,1,0.7032063007354736
0,0.0,0.42723286269742655,0.33089956632410455,0.3519984811690656,0.37069884032504313,0.38881194994560814,0.4086997093500054,0.4303562426719583,0.45598670731667107,0.48957733145332627,0.5461498149330237,1.0527950814606692,0.9951832460732984,0.4467908687942373,0.0,0.990443864229765,50,506,1583,772000,no_split,wide,individual,1,0.7005681991577148
1,1.0,0.46624701027596055,0.3425370627109107,0.374890504352332,0.4001305579521699,0.42627569559127215,0.4530529581401418,0.4810556419660023,0.5108295999086723,0.5477791955125412,0.6059143428753423,1.0436893535847092,0.9857291666666667,0.4467908687942373,0.0,0.990443864229765,50,506,1583,772000,no_split,wide,individual,1,0.7005681991577148
0,0.0,0.574801911066839,0.3656770501091394,0.4104339939864966,0.45236204443911543,0.4953580280664878,0.5407206825956481,0.5882850004451541,0.6456682761910871,0.7174263188256575,0.8313230041907635,1.486554720666385,0.9938983050847457,0.5827369231733763,0.0,0.991043956043956,50,506,1597,772000,no_split,wide,individual,1,0.6997039318084717
1,1.0,0.5902476030817034,0.3845547206663849,0.4358247795785567,0.4790279763386191,0.5204480404544488,0.5610269417495884,0.6064947318545255,0.6588513013847993,0.7244648701840386,0.8324879778413291,1.4754178681042427,0.9883422459893048,0.5827369231733763,0.0,0.991043956043956,50,506,1597,772000,no_split,wide,individual,1,0.6997039318084717
0,0.0,0.40954243887607356,0.3209099633337252,0.34331810690957243,0.3622379427304841,0.37952673117047114,0.39762360252610535,0.4175422949119425,0.440537365537787,0.46912137937678655,0.5129226212651022,0.8215224359050334,0.9991578947368421,0.4211954123519797,0.0,0.9980474934036939,50,506,1601,772000,no_split,wide,individual,1,0.7010793685913086
1,1.0,0.43291004177220277,0.33285207496579006,0.36099646127165447,0.38255549753750984,0.40354669578713165,0.4235051437881494,0.4455139252905876,0.46956170142527165,0.49832400234655655,0.544490614968309,0.8773862030503816,0.9969312169312169,0.4211954123519797,0.0,0.9980474934036939,50,506,1601,772000,no_split,wide,individual,1,0.7010793685913086
0,0.0,0.47431598998375424,0.33883293178968094,0.3675081998730732,0.39080680132021145,0.41376462290209937,0.4398120074580987,0.4701753288604587,0.5097969650980362,0.5640801823709007,0.6509025649018768,1.4234189045262224,0.9856842105263158,0.4950898847205964,0.0,0.9741052631578947,50,506,1614,772000,no_split,wide,individual,1,0.7082030773162842
1,1.0,0.5158637794574386,0.3502072172919708,0.3912301410757798,0.4274069724447895,0.4606831427699414,0.4940462975084635,0.5309213310248305,0.573061494594921,0.6244239367824755,0.7041713383844878,1.3667725470311909,0.9625263157894737,0.4950898847205964,0.0,0.9741052631578947,50,506,1614,772000,no_split,wide,individual,1,0.7082030773162842
0,0.0,0.4323393377933577,0.3608443255580685,0.37963780544210957,0.3958640206284178,0.4100722834434872,0.42465983442224753,0.44100356714821093,0.4585888006830434,0.4801601481664696,0.5126466944163122,0.7379390669988902,0.9993684210526316,0.438762960116883,0.0,0.9988451443569554,50,506,161753,772000,no_split,wide,individual,1,0.6976184844970703
1,1.0,0.44515295090991874,0.36968186340238557,0.389940474761541,0.40707421640504426,0.4235848186553322,0.4382000048428301,0.45547105596136167,0.47390328318721214,0.4959370581098519,0.5279408267022035,0.8239390669988902,0.998324607329843,0.438762960116883,0.0,0.9988451443569554,50,506,161753,772000,no_split,wide,individual,1,0.6976184844970703
0,0.0,0.4636842548036095,0.34941884751064006,0.3750888581948568,0.3966950512544956,0.41953894895125354,0.44303468950807046,0.4685991207865571,0.5007561688756612,0.5417646708034699,0.6050891106164984,1.1343588590076186,0.9960638297872341,0.4735729644538649,0.0,0.9925065963060686,50,506,1638,772000,no_split,wide,individual,1,0.7002763748168945
1,1.0,0.4833063540572577,0.3631263294061544,0.3954045109056092,0.42095701642823585,0.44415318875183246,0.4698491388124365,0.4952832193958611,0.5241057982368499,0.5627995461491067,0.6181860433439305,1.3917386329281212,0.9890052356020942,0.4735729644538649,0.0,0.9925065963060686,50,506,1638,772000,no_split,wide,individual,1,0.7002763748168945
0,0.0,0.39603725734634754,0.3151382504622197,0.3323307249461266,0.3472078328663585,0.3632726917537068,0.3803307249461266,0.399231582299997,0.4212222089248759,0.4487704869701242,0.4962353363884012,0.8721455478983858,0.9933684210526316,0.40865757702417005,0.0,0.9889709762532981,50,506,1657,772000,no_split,wide,individual,1,0.7018263339996338
1,1.0,0.4213446708801821,0.32552310137774737,0.349139758672586,0.36985793753271445,0.38894415195594445,0.40760286855720845,0.4293175752281552,0.45320862337575285,0.4838576864771935,0.5333021571354126,0.9666081041967403,0.9845502645502645,0.40865757702417005,0.0,0.9889709762532981,50,506,1657,772000,no_split,wide,individual,1,0.7018263339996338
0,0.0,0.468911442753046,0.3741965202224189,0.3945319777694226,0.41246319755923044,0.4313274372797705,0.45018471137525223,0.47182262513422374,0.496206535874309,0.530267936874397,0.5873425366991939,1.2592210975182894,0.994468085106383,0.48089299346789455,0.0,0.988994708994709,50,506,1663,772000,no_split,wide,individual,1,0.698993444442749
1,1.0,0.49274842259627116,0.3840078552774519,0.41019856652937386,0.43375867577746513,0.45559911359632144,0.47716727896639566,0.5015544382414546,0.5301847113752521,0.5644854729055988,0.6192551042356519,1.17462033763715,0.983578947368421,0.48089299346789455,0.0,0.988994708994709,50,506,1663,772000,no_split,wide,individual,1,0.698993444442749
0,0.0,0.5035590602120095,0.3677720132964948,0.3998554234280887,0.4278060861584476,0.4528421318718174,0.4797774841335112,0.5088089286801752,0.5418525711220601,0.5877567590910574,0.6668277046802243,1.315119825057919,0.9958064516129033,0.5235425417191155,0.0,0.9933512064343164,50,506,1761,772000,no_split,wide,individual,1,0.697791337966919
1,1.0,0.5434191596887503,0.37626207880207957,0.4171264287122904,0.45532734859901425,0.49129177953535036,0.5260701794356331,0.5628254526916041,0.6020572328101502,0.6548825264598925,0.7307301459859781,1.4338333708128337,0.990909090909091,0.5235425417191155,0.0,0.9933512064343164,50,506,1761,772000,no_split,wide,individual,1,0.697791337966919
0,0.0,0.4107232827752865,0.3248454172448727,0.3413750519355779,0.35537505193557783,0.368523350507149,0.3828469765837274,0.399898086564492,0.4210952753508131,0.45454480435211764,0.5258806049958706,1.1631441269759502,0.9927748691099476,0.4568891990056531,0.0,0.9662303664921466,50,506,1768,772000,no_split,wide,individual,1,0.6997971534729004
1,1.0,0.5030551152360195,0.3490827998828815,0.40092059463048507,0.4400753902765479,0.47247145702686427,0.5004803916327761,0.5283197770687172,0.5576330310767165,0.592909613946784,0.6464238867566138,1.378375051935578,0.9396858638743455,0.4568891990056531,0.0,0.9662303664921466,50,506,1768,772000,no_split,wide,individual,1,0.6997971534729004
0,0.0,0.37101588405351216,0.2887986506031189,0.307017168647562,0.32179367948171494,0.33625306171225494,0.3531511673300088,0.3707425917773541,0.39353035029697264,0.42474359161946024,0.47699646417572245,1.0295215344775916,0.9877659574468085,0.38357630958542704,0.0,0.9817553191489362,50,506,1813,772000,no_split,wide,individual,1,0.6993317604064941
1,1.0,0.39613673511734193,0.29556831463195843,0.3187566573003066,0.33890866715966117,0.35822456559778626,0.3782883703933753,0.4021883447535195,0.4291916385294904,0.4634161951150994,0.5167675745663758,1.0360237441738538,0.9757446808510638,0.38357630958542704,0.0,0.9817553191489362,50,506,1813,772000,no_split,wide,individual,1,0.6993317604064941
0,0.0,0.3940457983244666,0.3024835299056325,0.3226834109944234,0.34193012930520067,0.36050020835266605,0.3796181954736867,0.40011522249681775,0.42445752326253317,0.4554328952225906,0.5055434020065737,0.8616859162310349,0.9950526315789474,0.39919103689332974,0.0,0.9925984251968504,50,506,1821,772000,no_split,wide,individual,1,0.7014353275299072
1,1.0,0.40430933704036637,0.3108965205002364,0.3351415052827396,0.35415512209599576,0.3723296617505318,0.3906796531395062,0.41351870495164234,0.4368462726294597,0.46717093853042274,0.5118055503450549,0.9759353773908139,0.9901570680628272,0.39919103689332974,0.0,0.9925984251968504,50,506,1821,772000,no_split,wide,individual,1,0.7014353275299072
0,0.0,0.44039203395612236,0.33609987524171103,0.36106752447885215,0.3840145228186801,0.4041752893180882,0.4251558866640663,0.44831732616214554,0.47666366779455355,0.5113052096741532,0.5627357950679871,0.9902239278709213,0.9975916230366492,0.4514719985879593,0.0,0.9961702127659574,50,506,275,772000,no_split,wide,individual,1,0.704688310623169
1,1.0,0.46291131342407194,0.3463590617048664,0.37851017211350707,0.4028613715945248,0.4262011286151543,0.44851812586681555,0.473781553558265,0.502104818425587,0.539201231966562,0.594913876958108,1.039584033111481,0.9947027027027027,0.4514719985879593,0.0,0.9961702127659574,50,506,275,772000,no_split,wide,individual,1,0.704688310623169
0,0.0,0.36562721811395876,0.3004639088337879,0.3149463112137338,0.3270888735698213,0.338714710862863,0.35045506393815684,0.3642974347407251,0.3810901374706712,0.4036721769036874,0.44760308808758414,0.8738676839596349,0.995531914893617,0.3966443003420755,0.0,0.9837135278514589,50,506,3286,772000,no_split,wide,individual,1,0.7018158435821533
1,1.0,0.4274972710240117,0.3128763398098224,0.344456514357274,0.3743822399639715,0.3991910325438891,0.42290405638469275,0.4453554470497826,0.469584658885638,0.4997192275939701,0.5428112458790701,0.9818676839596349,0.9719576719576719,0.3966443003420755,0.0,0.9837135278514589,50,506,3286,772000,no_split,wide,individual,1,0.7018158435821533
0,0.0,0.44098302630262864,0.3479287766390074,0.3677322118813497,0.38481773141557085,0.4020501811643731,0.420037379126802,0.4406320982054945,0.4646838770033246,0.49794881717781037,0.561156837885384,1.1336777209588802,0.9961904761904762,0.4682865270215911,0.0,0.9897097625329815,50,506,3292,772000,no_split,wide,individual,1,0.6990392208099365
1,1.0,0.49544632510519065,0.362262508109662,0.40274292695670383,0.43228264835059316,0.45905018116437313,0.4862636303726895,0.5128399413208683,0.5427023936862344,0.5788015470453592,0.633392971358476,1.1211731974913186,0.9832631578947368,0.4682865270215911,0.0,0.9897097625329815,50,506,3292,772000,no_split,wide,individual,1,0.6990392208099365
0,0.0,0.44678771844827825,0.35538783754729353,0.37832538286019185,0.3983591631906894,0.4160835881161857,0.4353195879831938,0.45499168491449554,0.47830128024903545,0.5079655988636052,0.5528052222037799,0.8929166126424036,0.9983157894736842,0.45642455723816633,0.0,0.9979002624671915,50,506,337788,772000,no_split,wide,individual,1,0.7019052505493164
1,1.0,0.4660109413747042,0.3659810997321783,0.39296395031107634,0.41547510914908187,0.43665736308180875,0.4564816660847205,0.47752300875595394,0.501612424987583,0.5319967880211679,0.5764632089916437,0.8838157257259781,0.9974869109947644,0.45642455723816633,0.0,0.9979002624671915,50,506,337788,772000,no_split,wide,individual,1,0.7019052505493164
0,0.0,0.40415928357166414,0.3174008831594713,0.33523097704795113,0.35058104224239717,0.366646302839469,0.3830412507950359,0.40260598747855947,0.4260319707376652,0.4596175451644063,0.5185926227961545,1.06614525627863,0.992620320855615,0.4257575844169289,0.0,0.9809139784946237,50,506,3487,772000,no_split,wide,individual,1,0.7110586166381836
1,1.0,0.44758938040646684,0.32976642382244065,0.3588896725455232,0.3856666152902344,0.40958564390037083,0.43338990739837574,0.4583090250904394,0.48758564390037085,0.5245821365633094,0.579449483230375,1.2287727445730956,0.969081081081081,0.4257575844169289,0.0,0.9809139784946237,50,506,3487,772000,no_split,wide,individual,1,0.7110586166381836
0,0.0,0.40492415480044125,0.32020576434109016,0.34189716779280255,0.3607051122626282,0.3782681000047122,0.395983134841299,0.4133746986093183,0.4334395749701797,0.4619747272750629,0.5013794365911037,0.8060453795701925,0.9989528795811519,0.41398967572899875,0.0,0.9985714285714286,50,506,3580,772000,no_split,wide,individual,1,0.69761061668396
1,1.0,0.42324911154372874,0.33359872571838795,0.35877130815462643,0.3778900858633224,0.3962644236448546,0.41500387545844325,0.4350641892637937,0.4565281190422215,0.48396653916054555,0.5219039527740028,0.7944395749701797,0.9981818181818182,0.41398967572899875,0.0,0.9985714285714286,50,506,3580,772000,no_split,wide,individual,1,0.69761061668396
0,0.0,0.4548598370246395,0.34150179396070857,0.361922840305564,0.3811189300095163,0.3996596473613894,0.42057286893216805,0.4438722705359159,0.475922840305564,0.52303857566995,0.611668863103942,1.3951827675625186,0.9906593406593407,0.4901362209721836,0.0,0.9743093922651934,50,506,3625,772000,no_split,wide,individual,1,0.6979074478149414
1,1.0,0.5258045647413673,0.3625370497197197,0.40649447369558456,0.44452671700085383,0.4800501371442677,0.5145109228502751,0.5469376837990352,0.5828624214082752,0.6281283090453859,0.6984722747033841,1.3560521373222296,0.9577777777777777,0.4901362209721836,0.0,0.9743093922651934,50,506,3625,772000,no_split,wide,individual,1,0.6979074478149414
0,0.0,0.5473472253475045,0.420256821876727,0.45205622557022485,0.4792211948772838,0.5054459494804995,0.5310420545317438,0.5592377926895971,0.5918809682061394,0.6318964126877611,0.6957011268178501,1.1816998659432647,0.998324607329843,0.5587771268192446,0.0,0.9976377952755906,50,506,3754,772000,no_split,wide,individual,1,0.7020907402038574
1,1.0,0.5702671856671518,0.43747351326817874,0.47520399241435757,0.5045968736428641,0.5304532348995131,0.5581971357319487,0.5863314833436828,0.6188830240523678,0.6562766702804301,0.7166183430544015,1.148871778274974,0.9969473684210526,0.5587771268192446,0.0,0.9976377952755906,50,506,3754,772000,no_split,wide,individual,1,0.7020907402038574
0,0.0,0.41251654522536096,0.32674965102834785,0.34527730397021944,0.36174965102834783,0.378186349047578,0.39507900740534213,0.4147496510283478,0.4381844969796477,0.46893096122849165,0.5186720811114751,0.9294642888847836,0.9904761904761905,0.4227131916493953,0.0,0.985910290237467,50,506,3910,772000,no_split,wide,individual,1,0.6986572742462158
1,1.0,0.432856171513303,0.3341147035734786,0.35700819801034583,0.37671512930261813,0.39674834739916304,0.4171866489215077,0.43979319338910705,0.46497455174283486,0.4993851616802294,0.5504967544207859,1.1337074592354601,0.9813684210526316,0.4227131916493953,0.0,0.985910290237467,50,506,3910,772000,no_split,wide,individual,1,0.6986572742462158
0,0.0,0.4075952074851096,0.32313565687648493,0.3418890853460897,0.35888187460634746,0.3760794406430683,0.39319324944975154,0.4128998208160197,0.4353076252419178,0.4659951465695776,0.5081539074916634,0.8555422434898065,0.9948421052631579,0.41331734746566784,0.0,0.9905540897097626,50,506,4222,772000,no_split,wide,individual,1,0.6992127895355225
1,1.0,0.4190697633191391,0.33863792009628924,0.35915790066378034,0.3760368034865656,0.39226592723506154,0.40863728420101936,0.42646817995934294,0.44647688575214806,0.471625158916225,0.5112926537641584,0.9211603309264199,0.9862433862433863,0.41331734746566784,0.0,0.9905540897097626,50,506,4222,772000,no_split,wide,individual,1,0.6992127895355225
0,0.0,0.44253495663524434,0.324933577613782,0.346952967750886,0.3659471507097548,0.38664621475459093,0.4086500517753876,0.43357253171578264,0.4676096264856595,0.5142061943081585,0.6068116644144768,1.3592679400939478,0.9810582010582011,0.4669112000214878,0.0,0.9582539682539682,50,506,4264,772000,no_split,wide,individual,1,0.6980957984924316
1,1.0,0.4912874434077311,0.33566616369880364,0.3696157543336696,0.4028815912482101,0.43519695463191566,0.4669283520688179,0.5018062510042254,0.5435360098489379,0.593952967750886,0.6750955368186131,1.4440727336082628,0.9354497354497354,0.4669112000214878,0.0,0.9582539682539682,50,506,4264,772000,no_split,wide,individual,1,0.6980957984924316
0,0.0,0.4319060406846125,0.3643052346384693,0.3791747019577696,0.39263891579529203,0.4059735906716068,0.4191051125625186,0.4335265053689853,0.45161989359202687,0.4760754472973202,0.5145455433907985,0.8730511447274261,0.9930851063829788,0.439762553025038,0.0,0.9892266666666667,50,506,5281,772000,no_split,wide,individual,1,0.6992893218994141
1,1.0,0.4476610788004391,0.37117815814227895,0.3895235572973639,0.4054100012229646,0.4211816143267883,0.4361816143267883,0.454052696182391,0.472638915795292,0.4981370939728264,0.5364146517701834,0.8710798188175006,0.9853475935828877,0.439762553025038,0.0,0.9892266666666667,50,506,5281,772000,no_split,wide,individual,1,0.6992893218994141
0,0.0,0.4628027433604428,0.3563230074093097,0.3834900615718408,0.4067475010441152,0.4281069048961602,0.4500762066967363,0.4726571919182781,0.4982270755848008,0.532038450745916,0.5846416455409068,1.025239546357525,0.9987301587301587,0.47162615754033693,0.0,0.99824,50,506,5332,772000,no_split,wide,individual,1,0.7022285461425781
1,1.0,0.4805918848521649,0.36307620669673635,0.3954389897988342,0.421677136228194,0.44559698583438684,0.4693008944122373,0.49360177488585605,0.5219176245300117,0.5592843718990517,0.6122411714577054,0.9448956180104745,0.997741935483871,0.47162615754033693,0.0,0.99824,50,506,5332,772000,no_split,wide,individual,1,0.7022285461425781
0,0.0,0.4377956001521551,0.333561989940482,0.3576883574382796,0.37765486220148714,0.397772124626175,0.4194622895381346,0.4417176206855935,0.4688170671138387,0.5036169984948423,0.5667565629305379,1.1674194257071537,0.9945263157894737,0.45439090774832225,0.0,0.9918733509234828,50,506,5575,772000,no_split,wide,individual,1,0.7020294666290283
1,1.0,0.4710740212047867,0.34748014336123223,0.3795364236331901,0.40604994219368257,0.43157108400484306,0.4570885484148054,0.48375661748797616,0.5139268660959028,0.552330897405317,0.6117346096851867,1.066796190060612,0.9892063492063492,0.45439090774832225,0.0,0.9918733509234828,50,506,5575,772000,no_split,wide,individual,1,0.7020294666290283
0,0.0,0.437572084760007,0.33515313964263327,0.3556462723644629,0.3745018668374859,0.39332096933385646,0.4131616490081921,0.437332738239206,0.46636422724874055,0.5055198109304873,0.5725805083242184,1.3043821680590524,0.9873224043715847,0.4513617829615888,0.0,0.9797843665768194,50,506,5731,772000,no_split,wide,individual,1,0.6989707946777344
1,1.0,0.46478473387057556,0.34555085222489323,0.3743363366186792,0.39951916448833447,0.4241531396426333,0.4475773108603785,0.4730465378849788,0.5033907546498582,0.5410044081506713,0.6033263372398968,1.3015313904234276,0.9724468085106382,0.4513617829615888,0.0,0.9797843665768194,50,506,5731,772000,no_split,wide,individual,1,0.6989707946777344
0,0.0,0.42869224786445836,0.33471001364007535,0.35820290636897434,0.3779362268294279,0.3969339310477249,0.41592313735160097,0.43663528160108306,0.4605583449839488,0.49222930955231675,0.5380594390530234,1.0680452593385084,0.9995744680851064,0.4421674064512861,0.0,0.9980371352785146,50,506,5761,772000,no_split,wide,individual,1,0.7008492946624756
1,1.0,0.45557126790273367,0.3573507655263637,0.3845014076032401,0.40741794025739053,0.4278103586756899,0.4474297115312486,0.4671785732973505,0.491062833782491,0.5206202357019061,0.5636209388206495,0.8806447204322262,0.9965079365079365,0.4421674064512861,0.0,0.9980371352785146,50,506,5761,772000,no_split,wide,individual,1,0.7008492946624756
0,0.0,0.4153605629138114,0.30658994417662133,0.32467859842435637,0.34126548224585673,0.35901718315609676,0.3787855159603741,0.405070389524234,0.4376250097705673,0.48799997663549133,0.5747039999670088,1.355901447278109,0.975625,0.43604431291381135,0.0,0.9478645833333333,50,506,5803,772000,no_split,wide,individual,1,0.7006564140319824
1,1.0,0.45672806291381135,0.31903420399892224,0.3520146925456295,0.3816697826149015,0.40970361770579633,0.4366893388218551,0.46551999416929807,0.5004097965597224,0.5445498505211872,0.6148547104354833,1.29325792373292,0.9201041666666666,0.43604431291381135,0.0,0.9478645833333333,50,506,5803,772000,no_split,wide,individual,1,0.7006564140319824
0,0.0,0.4935168958182744,0.35812390037788844,0.38787781569200547,0.41382396058404325,0.44045364049734365,0.46824686324964687,0.49914918644076295,0.5346075825022074,0.583028098720212,0.6638902001005305,1.459105104821645,0.9945833333333334,0.5120619781699322,0.0,0.9923560209424084,50,506,5815,772000,no_split,wide,individual,1,0.6991140842437744
1,1.0,0.5308022719147656,0.373876344154683,0.41553458200656523,0.45000048801437526,0.4827760765323854,0.5153883262325755,0.548839465272971,0.5875140704178944,0.6329917543942071,0.7029781996444943,1.3163526448251874,0.9901052631578947,0.5120619781699322,0.0,0.9923560209424084,50,506,5815,772000,no_split,wide,individual,1,0.6991140842437744
0,0.0,0.4173195550841963,0.33832627473148263,0.35759039922602837,0.37403138093984317,0.39021556785894224,0.40637973348230877,0.42273709788037245,0.4430389033004064,0.46996734654412603,0.509753839275728,0.9464841955097174,0.9983157894736842,0.4285482250925506,0.0,0.9964550264550265,50,506,6055,772000,no_split,wide,individual,1,0.7002308368682861
1,1.0,0.43989634903716385,0.35110145449515384,0.3747622114401409,0.39378216096097124,0.4118516457017474,0.4303161631680194,0.44925164569182136,0.471022847686991,0.499893373948391,0.5423631180179626,0.8823570848956334,0.9945744680851064,0.4285482250925506,0.0,0.9964550264550265,50,506,6055,772000,no_split,wide,individual,1,0.7002308368682861
0,0.0,0.4642748419314759,0.3304067050105618,0.3570311549475603,0.381152243327973,0.40605688686035474,0.4331462277942848,0.4646526563276853,0.5038631884044105,0.555881340622671,0.6379037481212335,1.240602664097848,0.9850810810810811,0.4721032459601695,0.0,0.9750134048257373,50,506,6109,772000,no_split,wide,individual,1,0.6994740962982178
1,1.0,0.4798067286479796,0.3492539267156334,0.38005045631052226,0.4067397610895974,0.43210828217463043,0.45879832968106876,0.48612784338743376,0.5184021817484411,0.56359040475503,0.6380966862710996,1.3897087661104874,0.9651063829787234,0.4721032459601695,0.0,0.9750134048257373,50,506,6109,772000,no_split,wide,individual,1,0.6994740962982178
0,0.0,0.38752507292037836,0.3185080479111789,0.33520377296203613,0.3494685319173762,0.3628605267820116,0.37699507111178227,0.391641333394828,0.4098559439396081,0.43130597788729164,0.46874199144219936,0.7772309942795526,0.9940314136125654,0.4046134569921184,0.0,0.9921148825065275,50,506,6214,772000,no_split,wide,individual,1,0.6997227668762207
1,1.0,0.42161283906348485,0.3264034381481488,0.3489696420573722,0.36927902342986646,0.389055644532507,0.4088227190162961,0.43013367170652195,0.4545498675473479,0.4872075901039641,0.532902090351847,0.9519769339305472,0.9902083333333334,0.4046134569921184,0.0,0.9921148825065275,50,506,6214,772000,no_split,wide,individual,1,0.6997227668762207
0,0.0,0.4482927322472513,0.32158037269290357,0.34856866347055704,0.37351395300319856,0.39811990689129345,0.42342649805566784,0.4544614123571315,0.48987785076235574,0.5349860170743668,0.6038751235758758,1.1234052894683861,0.9972486772486773,0.4624842137287328,0.0,0.9934920634920635,50,506,6253,772000,no_split,wide,individual,1,0.702176570892334
1,1.0,0.4766756952102143,0.3455396526183396,0.3807279315658577,0.4108305556353973,0.4369690377588357,0.4624209843372681,0.48908078958877,0.5226866880321664,0.5614548607744563,0.6218112689424952,1.2193677606836877,0.9897354497354497,0.4624842137287328,0.0,0.9934920634920635,50,506,6253,772000,no_split,wide,individual,1,0.702176570892334
0,0.0,0.44776899374416357,0.3558911665738645,0.37849014766186884,0.39775314328905537,0.4166587394216587,0.4349139953238317,0.4560277613100419,0.4798870759409683,0.5097473604865859,0.5548818332008738,1.0285909139782905,0.9987368421052631,0.4587488749432242,0.0,0.9970078740157481,50,506,6262,772000,no_split,wide,individual,1,0.7014474868774414
1,1.0,0.46967126985328456,0.3679567640745735,0.3950167112522068,0.41768835724697645,0.43754768447768894,0.4597508301680676,0.48257745539903585,0.5074403640609659,0.5374021182641838,0.584281373298946,0.954979187902964,0.9952879581151832,0.4587488749432242,0.0,0.9970078740157481,50,506,6262,772000,no_split,wide,individual,1,0.7014474868774414
0,0.0,0.48685405404873505,0.37452529209405705,0.40199975166108814,0.42665665211939696,0.45000235495743024,0.472797798734937,0.4981409367436685,0.5259503112699193,0.56405828473809,0.61753508193574,1.049992030832407,0.9992631578947369,0.5042073698382088,0.0,0.9984736842105263,50,506,6361,772000,no_split,wide,individual,1,0.7030808925628662
1,1.0,0.5215606856276824,0.40165665211939694,0.43684250798560076,0.46452451556794,0.48898022202764757,0.5134186218516346,0.5390259781837823,0.5669475007649808,0.6006604362056768,0.6501186112314337,0.9486755725507959,0.9976842105263158,0.5042073698382088,0.0,0.9984736842105263,50,506,6361,772000,no_split,wide,individual,1,0.7030808925628662
0,0.0,0.4157582235666415,0.3381793828564065,0.3555131581371387,0.3708910525399168,0.38604390257643495,0.40254776548749643,0.42058328164251146,0.4402154157425917,0.4676104994329452,0.5088065019516872,0.8869440077317652,0.993578947368421,0.4186771845442835,0.0,0.9909762532981531,50,506,6427,772000,no_split,wide,individual,1,0.6991612911224365
1,1.0,0.4216115897599024,0.3473444160298785,0.36603492368865376,0.38164247621072334,0.3957273978718442,0.41091854914239806,0.42791345742452463,0.44648236390186075,0.47064517102833764,0.5087359473213489,0.9144773992601104,0.9883597883597883,0.4186771845442835,0.0,0.9909762532981531,50,506,6427,772000,no_split,wide,individual,1,0.6991612911224365
0,0.0,0.44937400386184573,0.3623030290703842,0.38199982974983293,0.3988673326259706,0.4147939693654528,0.43257915820046605,0.4527615476310309,0.47711845261666747,0.5084403436500724,0.5572908237661013,1.0899611894919548,0.9907446808510638,0.4618186537909237,0.0,0.988,50,506,6583,772000,no_split,wide,individual,1,0.699427604675293
1,1.0,0.47432985265010374,0.3696038840490158,0.3949901846834175,0.41711969035450974,0.437701388930697,0.4590214591082302,0.48203574557512885,0.5091567611496006,0.5448190834444628,0.6017099165582189,1.0629769123528834,0.9852406417112299,0.4618186537909237,0.0,0.988,50,506,6583,772000,no_split,wide,individual,1,0.699427604675293
0,0.0,0.4332044442590721,0.34328802612628423,0.36389744506404537,0.38213311206524325,0.39884785303117504,0.41588593980693417,0.43609775270832557,0.4577767708369561,0.49057501076457133,0.5436161712925521,1.0351965846109683,0.9955555555555555,0.4547441225546328,0.0,0.9902139037433155,50,506,6634,772000,no_split,wide,individual,1,0.7061786651611328
1,1.0,0.47674952362415146,0.35288525205247767,0.38375616890506353,0.40948379781052435,0.43595981126568967,0.4616471368847695,0.4901933635651387,0.5218042849522788,0.5607767708369561,0.6175750107645713,1.1675549748405891,0.9847567567567568,0.4547441225546328,0.0,0.9902139037433155,50,506,6634,772000,no_split,wide,individual,1,0.7061786651611328
0,0.0,0.44973851611647025,0.36242486564480386,0.3811068156636496,0.3978502816311891,0.4150355652478306,0.432783618063181,0.45310848120410097,0.4760184900781426,0.5091681567676309,0.5604215633405063,0.9653068041848765,0.9940625,0.46096398826616564,0.0,0.9906005221932115,50,506,6844,772000,no_split,wide,individual,1,0.7172431945800781
1,1.0,0.4722482325213568,0.3778021690318639,0.4028459207198549,0.42332417541770845,0.4412735598661808,0.4599128402693454,0.48055338859028207,0.5032870129497463,0.5335937275750525,0.5803345655814055,1.0306951253379744,0.9871204188481676,0.46096398826616564,0.0,0.9906005221932115,50,506,6844,772000,no_split,wide,individual,1,0.7172431945800781
0,0.0,0.4213023809467865,0.3246366351562665,0.3458268923864458,0.3638200567170406,0.3809562563991864,0.39844586233296214,0.4191101528438916,0.44574061795295145,0.48264361752280976,0.5463135040880617,1.2564681425634212,0.998,0.46551415939815055,0.0,0.9919371727748691,50,506,7624,772000,no_split,wide,individual,1,0.7258117198944092
1,1.0,0.5092653984906461,0.35863466338514277,0.4078829886822018,0.44664815267845787,0.4777344736355462,0.5060075759085533,0.5344862376357811,0.5649598596084711,0.6014964307531087,0.6571125922185628,1.1230075759085532,0.9859375,0.46551415939815055,0.0,0.9919371727748691,50,506,7624,772000,no_split,wide,individual,1,0.7258117198944092
0,0.0,0.40489105411470033,0.3160733866012815,0.3360833869331975,0.35356615995462426,0.37086011088853316,0.3884079629552858,0.40856699836080185,0.43092256084395647,0.46138157624096277,0.5134937983486326,1.0748943249703584,0.9953125,0.42279913875693415,0.0,0.9915183246073298,50,506,7756,772000,no_split,wide,individual,1,0.7064192295074463
1,1.0,0.4408957295532968,0.3275060051405185,0.3565678367669794,0.3818874081575944,0.40512114430149854,0.42777808392107475,0.4526494297096902,0.48152149037845365,0.5165105432246738,0.5674238960181388,1.0254992135748384,0.9876842105263158,0.42279913875693415,0.0,0.9915183246073298,50,506,7756,772000,no_split,wide,individual,1,0.7064192295074463
0,0.0,0.42150069928566575,0.30910851184882815,0.3334652788576149,0.35560121165560576,0.3776193531339501,0.3996220069888559,0.42463449716369417,0.4545127012990738,0.4954835941836039,0.5631023516638363,1.0896884472197725,0.9935106382978723,0.43284449912594863,0.0,0.9878820375335121,50,506,7768,772000,no_split,wide,individual,1,0.7073004245758057
1,1.0,0.44437225247715506,0.3263846700849382,0.35784721773064504,0.3829522012931673,0.40538335519268553,0.4301436991893205,0.4545785195496431,0.4832886691891175,0.5180872370967842,0.5782195116268581,1.067482985719705,0.9821621621621621,0.43284449912594863,0.0,0.9878820375335121,50,506,7768,772000,no_split,wide,individual,1,0.7073004245758057
0,0.0,0.40262227615529267,0.2893261997930034,0.3101422915981207,0.3302532866146943,0.350656327492269,0.3725922005190498,0.39933356413245036,0.4313283614164441,0.47893167898443256,0.5569818511770842,1.4384398784448857,0.9855497382198953,0.41686065311864345,0.0,0.9749214659685864,50,506,7807,772000,no_split,wide,individual,1,0.7168595790863037
1,1.0,0.43109903008199424,0.3049091084440149,0.3350167381130503,0.3613333089119427,0.3884783053141777,0.4123339829689493,0.4405036624059913,0.47143987844488594,0.5116175583050907,0.5781656007667882,1.1652278396978477,0.9642931937172775,0.41686065311864345,0.0,0.9749214659685864,50,506,7807,772000,no_split,wide,individual,1,0.7168595790863037
0,0.0,0.39727184096786294,0.31378944128314534,0.3299794569364253,0.3438281478542263,0.35974281960221033,0.3759968707169874,0.3950115605473619,0.4197392573386394,0.45310079479831616,0.5090153086987406,1.0984533370722678,0.9827083333333333,0.4058874389009338,0.0,0.9728608923884514,50,506,7813,772000,no_split,wide,individual,1,0.7107276916503906
1,1.0,0.41463979235675186,0.32166745672726377,0.3419704116391128,0.36080981812949153,0.3791045321853395,0.39807580178756724,0.418989663545762,0.4443359597178745,0.4763320931465547,0.5291499102721694,1.0658357114463306,0.9628571428571429,0.4058874389009338,0.0,0.9728608923884514,50,506,7813,772000,no_split,wide,individual,1,0.7107276916503906
0,0.0,0.38873624008705343,0.3239225216040323,0.33644692263479076,0.34794114550299576,0.35838595025891723,0.37106666620087464,0.38536449765080383,0.4041568398876785,0.436239126827175,0.48505086371573536,0.7791596014006514,0.9997905759162303,0.41559147568914767,0.0,0.9974869109947644,50,506,7828,772000,no_split,wide,individual,1,0.7232434749603271
1,1.0,0.4424467112912419,0.36945594080603594,0.3958860042223671,0.4130449748806015,0.42620244958858683,0.4398718964240513,0.453816630185399,0.469399705297665,0.4905758468005105,0.5182239379654889,0.7511099111833723,0.9951832460732984,0.41559147568914767,0.0,0.9974869109947644,50,506,7828,772000,no_split,wide,individual,1,0.7232434749603271
0,0.0,0.5525746824148154,0.39908898074782634,0.4268021882042579,0.4537164705561013,0.48150742441085714,0.51302954982709,0.5498020716002711,0.5928643541742431,0.6564003867901671,0.7589222590317267,1.5460136020059703,0.9789417989417989,0.5682446745345948,0.0,0.9643617021276596,50,506,7840,772000,no_split,wide,individual,1,0.7209322452545166
1,1.0,0.5840822601529815,0.4124132313623837,0.45441618247583593,0.48801087112524233,0.5220136020059702,0.5559672874875978,0.595006322744989,0.6398470357328264,0.6966308558541858,0.7835801703405518,1.5285691659264578,0.9496256684491978,0.5682446745345948,0.0,0.9643617021276596,50,506,7840,772000,no_split,wide,individual,1,0.7209322452545166
0,0.0,0.4572860314603896,0.3549903487064172,0.3804127565570563,0.40421224503928216,0.42492312564824947,0.44568212076084474,0.4689575259695834,0.4954357748660685,0.526888553312596,0.5751905854216214,1.0390150235164526,0.9998952879581152,0.4671299581619603,0.0,0.9987434554973822,50,506,7924,772000,no_split,wide,individual,1,0.7387328147888184
1,1.0,0.476973884863531,0.3802118288865215,0.4086573049583352,0.4311501549330105,0.45123913934582277,0.47015015493301054,0.4898418031097076,0.5125222878799758,0.5411686579847197,0.579873890407811,0.9261905854216214,0.9975916230366492,0.4671299581619603,0.0,0.9987434554973822,50,506,7924,772000,no_split,wide,individual,1,0.7387328147888184
0,0.0,0.4390753357156599,0.35093070390334496,0.3728682547278742,0.39076392519437236,0.40775073888163826,0.4258656310957609,0.4456226823014424,0.4677088109374664,0.49791422489741466,0.5448085565822611,1.0536226823014425,0.9995767195767196,0.4625073295966193,0.0,0.9984615384615385,50,506,7939,772000,no_split,wide,individual,1,0.7202191352844238
1,1.0,0.4860639617429029,0.37185939595379197,0.4066420889369682,0.43498797045952625,0.45716764895267653,0.4815520647776766,0.5049219573996689,0.5280951566786585,0.5585685559240088,0.6031338837420727,0.9377968156583552,0.9973404255319149,0.4625073295966193,0.0,0.9984615384615385,50,506,7939,772000,no_split,wide,individual,1,0.7202191352844238
0,0.0,0.4330410841833126,0.32547911029736565,0.3473301591826096,0.36664955791851955,0.38522118012871626,0.4047468603169282,0.42899612775267554,0.4569181925986453,0.4962187135596227,0.5749521595820143,1.4551336857361965,0.9904494382022472,0.4650201695208555,0.0,0.9752617079889807,50,506,8026,772000,no_split,wide,individual,1,0.7203505039215088
1,1.0,0.49578923541319414,0.3392114994443967,0.37964987545192674,0.4157248950923241,0.4498032194884144,0.48073219117688293,0.5153188677653475,0.5527220166870556,0.5954869817437781,0.6625095619069717,1.2539492697695234,0.9606486486486486,0.4650201695208555,0.0,0.9752617079889807,50,506,8026,772000,no_split,wide,individual,1,0.7203505039215088
0,0.0,0.4698053753739115,0.35800182926048846,0.3806740249992138,0.4016560544520758,0.42279648727659697,0.44618726082777954,0.4728137514403869,0.5038971972245889,0.5458190443639579,0.6129613468457649,1.4510789524766523,0.9862105263157894,0.4770107437949641,0.0,0.9798947368421053,50,506,808,772000,no_split,wide,individual,1,0.7213938236236572
1,1.0,0.48421611221601674,0.3735074680856907,0.39966753773631974,0.4218496615436483,0.44326473473748634,0.46534618833403096,0.48905547266617744,0.5192970416651139,0.5569888395644995,0.6186901967292581,1.1770305299780963,0.9735789473684211,0.4770107437949641,0.0,0.9798947368421053,50,506,808,772000,no_split,wide,individual,1,0.7213938236236572
0,0.0,0.4319393062265007,0.31102181265384105,0.33396005315150146,0.3558251308377756,0.37819706944228154,0.402203207370346,0.428319180704162,0.4608873282858319,0.5093510666768527,0.5916469329302118,1.2945603753192056,0.9830366492146597,0.4580905333805478,0.0,0.9713838120104439,50,506,8311,772000,no_split,wide,individual,1,0.7239017486572266
1,1.0,0.48410555622650064,0.323090301873684,0.35921740144465414,0.3928151666851538,0.4274821100634902,0.46126397945718445,0.49792793606344465,0.5407222252674871,0.5923141848181307,0.6730987408970863,1.4628702587977787,0.9597916666666667,0.4580905333805478,0.0,0.9713838120104439,50,506,8311,772000,no_split,wide,individual,1,0.7239017486572266
0,0.0,0.44720888738957937,0.3610570666817972,0.37915199251466514,0.39500178549289794,0.4104386464661333,0.4269493647505018,0.44569698280278347,0.4692747899767742,0.5013283050648977,0.5600729843387321,1.1162225583492666,0.9859375,0.46519722072291275,0.0,0.9747619047619047,50,506,833,772000,no_split,wide,individual,1,0.7001547813415527
1,1.0,0.4837658228734504,0.3724674125292784,0.39725271258591277,0.420465074922046,0.444760574314612,0.4682746291532573,0.49310042748975774,0.5212225583492666,0.5576867678868598,0.6144941545406101,1.1039493647505019,0.9632258064516129,0.46519722072291275,0.0,0.9747619047619047,50,506,833,772000,no_split,wide,individual,1,0.7001547813415527
0,0.0,0.5552867917309163,0.3516315502339534,0.3889958901647245,0.42096400107793797,0.4567951571628577,0.49802878887009794,0.5461921486810695,0.6076719540173042,0.6956827176666741,0.845885929328782,1.4850479430421724,0.971195652173913,0.5772140420246883,0.0,0.9548648648648649,50,506,837,772000,no_split,wide,individual,1,0.7015645503997803
1,1.0,0.5989055154335812,0.3703665385856578,0.42404799303118706,0.4717745580857786,0.5168376384198778,0.561774682960934,0.6119767543583864,0.6680479430421723,0.7477956259249794,0.8744601533515908,1.4906323843848315,0.9387096774193548,0.5772140420246883,0.0,0.9548648648648649,50,506,837,772000,no_split,wide,individual,1,0.7015645503997803
0,0.0,0.3886280315715895,0.3100171375959382,0.32882425980593155,0.344591012579295,0.36114662401508685,0.37660362804972014,0.39359101257929496,0.4140107480158831,0.43967106246658205,0.4805796746434019,0.9487606777567825,0.9974869109947644,0.3995513459832732,0.0,0.9946842105263158,50,506,8446,772000,no_split,wide,individual,1,0.6982336044311523
1,1.0,0.4105902510236519,0.31887215775551697,0.3429216028762584,0.3625940242679732,0.3814978140833564,0.40096146666769494,0.4209220854335874,0.44349027568623695,0.4719949649303762,0.5131027822521895,0.9339948664576586,0.9918518518518519,0.3995513459832732,0.0,0.9946842105263158,50,506,8446,772000,no_split,wide,individual,1,0.6982336044311523
0,0.0,0.4112133470864139,0.3333021270783565,0.35156797811077845,0.3676104071590169,0.38222161727673404,0.3976916370226753,0.4146214190066125,0.4343619252342587,0.4603323100168798,0.5023119000440489,1.2627283347975122,0.9893121693121694,0.43446860347502136,0.0,0.9802659574468086,50,506,845,772000,no_split,wide,individual,1,0.694709062576294
1,1.0,0.4579725791832931,0.33772833479751224,0.3634442056402599,0.3872619342315384,0.41228201862929753,0.4376275816040286,0.46827569048728934,0.5008209553381716,0.5422294383625789,0.6036917994581347,1.141263034203273,0.9711229946524064,0.43446860347502136,0.0,0.9802659574468086,50,506,845,772000,no_split,wide,individual,1,0.694709062576294
0,0.0,0.4559375510401188,0.3692076042377129,0.3844421219365945,0.39639065965102155,0.408595687557395,0.4228809415704046,0.44073718437203274,0.4658531748591693,0.5091049356395894,0.5948814672885899,1.3788809415704044,0.9952879581151832,0.49147474475739633,0.0,0.9742631578947368,50,506,8521,772000,no_split,wide,individual,1,0.7047357559204102
1,1.0,0.5273879934346449,0.399297036277964,0.4480997305692493,0.4753836384427079,0.49869787269836197,0.5196885266993599,0.5421336860846641,0.5686826695973123,0.6024483558126631,0.6524005576806724,1.1559377497600867,0.953015873015873,0.49147474475739633,0.0,0.9742631578947368,50,506,8521,772000,no_split,wide,individual,1,0.7047357559204102
0,0.0,0.5387128348228298,0.4095108624616159,0.4323795434938845,0.45325546908307274,0.4753978482853981,0.500542492382862,0.5314181030646294,0.5719028360376849,0.6277410824985776,0.7279645125984577,1.362345027805419,0.9956521739130435,0.5747322621253077,0.0,0.9836559139784946,50,506,8704,772000,no_split,wide,individual,1,0.6973497867584229
1,1.0,0.6099853186341158,0.45137042611779493,0.5001285232350567,0.5363674102425293,0.5669387283929233,0.5960787686579909,0.6281896363299845,0.6623709650155797,0.7060598300503546,0.7761115511755603,1.3606973179849906,0.9719148936170213,0.5747322621253077,0.0,0.9836559139784946,50,506,8704,772000,no_split,wide,individual,1,0.6973497867584229
0,0.0,0.43914318637524713,0.32160634805525073,0.3513617316852869,0.37743791524812886,0.4023179898026618,0.4284870705480741,0.4542423643821038,0.4840130544698988,0.5186739204734391,0.5718276646820786,0.9080879216447263,0.9998913043478261,0.4490979213365336,0.0,0.9994520547945206,50,506,8755,772000,no_split,wide,individual,1,0.6979513168334961
1,1.0,0.4592176519049133,0.34254146820911646,0.37588660476792546,0.40285262857228604,0.4274535766310051,0.4521255961543287,0.4758677168396206,0.5039279141734827,0.5381367114950047,0.5863982408591755,0.9341277827039217,0.9990055248618784,0.4490979213365336,0.0,0.9994520547945206,50,506,8755,772000,no_split,wide,individual,1,0.6979513168334961
0,0.0,0.4423403670738718,0.3412288814298535,0.3624185461299697,0.3828681088287364,0.4021809846218476,0.42103387374984946,0.4445172004553016,0.47250155210505046,0.5082978564309103,0.5704401877031398,1.3052072985033087,0.9880208333333333,0.45389067957387186,0.0,0.98140625,50,506,8785,772000,no_split,wide,individual,1,0.7121219635009766
1,1.0,0.46544099207387185,0.348990251783303,0.37527427296229543,0.4000338737498495,0.4238796724476985,0.4478248423455015,0.47221354620114825,0.5032786187154604,0.5435371406296332,0.6039649446635094,1.1912641560997106,0.9747916666666666,0.45389067957387186,0.0,0.98140625,50,506,8785,772000,no_split,wide,individual,1,0.7121219635009766
0,0.0,0.4082378076499797,0.308601136549887,0.3310872203490062,0.3512720779471464,0.3694807426600094,0.38881144113322885,0.40964491753497484,0.4382747693403983,0.4739408272661871,0.5324550417839499,1.002686864979018,0.9951322751322751,0.4265254550472823,0.0,0.9905570291777188,50,506,8788,772000,no_split,wide,individual,1,0.7212789058685303
1,1.0,0.4449103771647833,0.3152747693403983,0.34628154264306227,0.37547060493850154,0.40090380580344503,0.42791589686657255,0.4558923610209453,0.49064389599804564,0.5318564694913425,0.5955765928991459,1.315197677056143,0.9859574468085106,0.4265254550472823,0.0,0.9905570291777188,50,506,8788,772000,no_split,wide,individual,1,0.7212789058685303
0,0.0,0.4490525030505143,0.3560451882230922,0.3781771628597603,0.3970081599183555,0.4155090723436042,0.433898679980688,0.4543268493229338,0.4773254616591056,0.5072407274647983,0.5556403509851022,1.154018188773629,0.9788359788359788,0.48536721739251587,0.0,0.959095744680851,50,506,916,772000,no_split,wide,individual,1,0.7195963859558105
1,1.0,0.5220703244012768,0.3613910047784148,0.38762764925462656,0.416316577107029,0.44672897046500787,0.48244492142323414,0.5263268493229338,0.5818409042990034,0.650943104323611,0.740804276103741,1.4872407274647983,0.9391443850267379,0.48536721739251587,0.0,0.959095744680851,50,506,916,772000,no_split,wide,individual,1,0.7195963859558105
0,0.0,0.40655524351583006,0.31826947601654915,0.33654128662721666,0.3540315091200217,0.3692562376271561,0.3869493860164705,0.406159573585696,0.42962200794161365,0.46221479622429856,0.5179582271285937,1.0500988608442972,0.986,0.4227333799987697,0.0,0.9781627296587927,50,506,985,772000,no_split,wide,individual,1,0.706805944442749
1,1.0,0.4388268141964583,0.3250556621087405,0.3505195901250555,0.37360459537346746,0.39641793854167495,0.42000649657751765,0.44626278640389655,0.47578046202381125,0.5161656631912068,0.5775995911500181,1.0663518640685856,0.9703664921465969,0.4227333799987697,0.0,0.9781627296587927,50,506,985,772000,no_split,wide,individual,1,0.706805944442749
0,0.0,0.43793762173956785,0.34269251090436986,0.3652725717125742,0.383960520255585,0.40223838380368265,0.42075034657969984,0.4421930019089058,0.4662453964638548,0.4980923866207212,0.5512995359029402,1.184808228303975,0.9936585365853658,0.4636028314466398,0.0,0.9891959798994975,50,506,275,772000,no_split,narrow,individual,1,0.7081048488616943
1,1.0,0.49086380548783026,0.35607132471110126,0.38963460947974604,0.4192798280663167,0.4479643425889513,0.47588921180980104,0.506634609479746,0.5417598962733184,0.5836962224266203,0.6413129200951424,1.0875011674338952,0.9844559585492227,0.4636028314466398,0.0,0.9891959798994975,50,506,275,772000,no_split,narrow,individual,1,0.7081048488616943
0,0.0,0.47048068641660196,0.3657069823841293,0.38649819116967515,0.4060594042656432,0.42524660237744816,0.44735123016664413,0.47216840232629265,0.5014688187366484,0.5418561448505307,0.6041197780314251,1.3121684013033754,0.99,0.4790635262434417,0.0,0.9842929292929293,50,506,808,772000,no_split,narrow,individual,1,0.7064502239227295
1,1.0,0.48875382927374483,0.38285799885095323,0.409018817505997,0.4308169020728477,0.45285504551120115,0.4745121069779196,0.49700613020986384,0.5241737232188196,0.5566212901006615,0.6143401432892892,1.0308506155015729,0.9778494623655914,0.4790635262434417,0.0,0.9842929292929293,50,506,808,772000,no_split,narrow,individual,1,0.7064502239227295
0,0.0,0.43808109128188855,0.3337111885277288,0.35834577598823897,0.3797220472938085,0.3995472178429156,0.41952201178430193,0.4427090208769499,0.4697111885277288,0.5055800119798783,0.5666013667949878,1.2152321666984585,0.9969,0.46675245794855513,0.0,0.99424,50,506,833,772000,no_split,narrow,individual,1,0.7087371349334717
1,1.0,0.4995197341390314,0.3479448547573524,0.3895352915005119,0.42684538479103307,0.4597344309202751,0.4917197189502067,0.5237430424322702,0.557628995280017,0.5993394763263868,0.6585016164475413,1.0958863590646162,0.9912,0.46675245794855513,0.0,0.99424,50,506,833,772000,no_split,narrow,individual,1,0.7087371349334717
0,0.0,0.5781703971124661,0.35068795074714565,0.390123329726507,0.42750377350255847,0.46619870495684645,0.5127714158955619,0.566167568694848,0.6419436663652821,0.7421805648669565,0.9036343664708527,1.482448650673016,0.9685863874345549,0.6010884190017387,0.0,0.9521276595744681,50,506,837,772000,no_split,narrow,individual,1,0.7108755111694336
1,1.0,0.6247497280874201,0.37005421518767956,0.4275825578441165,0.4843800065387079,0.535156664153243,0.5859274112034558,0.6423100430588516,0.7098230906109103,0.7952518670604853,0.9330051166347856,1.4818057564410985,0.9351351351351351,0.6010884190017387,0.0,0.9521276595744681,50,506,837,772000,no_split,narrow,individual,1,0.7108755111694336
0,0.0,0.4148256353023478,0.33688631688874016,0.3540082445480773,0.3685927345625095,0.3824695761752042,0.3970082445480773,0.4141666797463498,0.434922935678699,0.46285762191512475,0.5107299200960396,1.080726253300529,0.9919791666666666,0.4388010675661625,0.0,0.9827272727272728,50,506,845,772000,no_split,narrow,individual,1,0.7234265804290771
1,1.0,0.4640938312730437,0.34815660510528657,0.37680806711243947,0.4032294478606767,0.42754064890531474,0.4508289505525255,0.47669484253772987,0.5067819547568685,0.5416193212945536,0.5941318217694002,1.1130754904426476,0.972967032967033,0.4388010675661625,0.0,0.9827272727272728,50,506,845,772000,no_split,narrow,individual,1,0.7234265804290771
0,0.0,0.46101485319130026,0.34714269788927776,0.3702136729535443,0.39077573376677055,0.4107519756025793,0.4320744045005872,0.45617026372422,0.4878606342193733,0.53242882038073,0.6097622919218335,1.362113341644406,0.9840223463687151,0.4925113733244017,0.0,0.9678688524590164,50,506,916,772000,no_split,narrow,individual,1,0.728234052658081
1,1.0,0.5226604487459264,0.3603244266131723,0.39894476196410794,0.43560578839622566,0.4690633472440563,0.5033474506636955,0.5387042081205428,0.5809180088515719,0.628556522832756,0.7041154213204718,1.4026053630531523,0.9524064171122995,0.4925113733244017,0.0,0.9678688524590164,50,506,916,772000,no_split,narrow,individual,1,0.728234052658081
0,0.0,0.394652925913964,0.32899507954658164,0.34288662143629517,0.35516756886058437,0.3659478695250095,0.3768737569756596,0.38866954988541275,0.4040871708281742,0.4269896577234886,0.4718549093427571,1.151244468452598,0.9905084745762712,0.4361172454215659,0.0,0.9583739837398374,50,506,985,772000,no_split,narrow,individual,1,0.7144978046417236
1,1.0,0.4743421649676363,0.3410030522936044,0.3809024358957242,0.4196270529807598,0.450025112559119,0.4746379264317884,0.49747514315823943,0.5229419709788927,0.5520671073088144,0.5965269351693204,1.0391735194195926,0.92875,0.4361172454215659,0.0,0.9583739837398374,50,506,985,772000,no_split,narrow,individual,1,0.7144978046417236
0,0.0,0.3957749044663274,0.31531172120123213,0.33237989723824307,0.34644767682321786,0.36026902884690587,0.3743351569143735,0.3897810706786376,0.4093046159440817,0.4395305416591888,0.4977690487427693,1.14129081243652,0.9926136363636363,0.4368186317390546,0.0,0.9736842105263158,50,506,1108,772000,no_split,narrow,individual,1,0.728635311126709
1,1.0,0.4722289062488586,0.33157467622981845,0.3724871534747519,0.408693257726259,0.4386857974905253,0.4661046383674971,0.493379699315235,0.5217591880687147,0.558616806648427,0.6122864149686986,1.321243714069408,0.9573529411764706,0.4368186317390546,0.0,0.9736842105263158,50,506,1108,772000,no_split,narrow,individual,1,0.728635311126709
0,0.0,0.42725579670905794,0.3196935333951842,0.34176429715632817,0.3608315243281224,0.3794532727553436,0.40026834255918453,0.42331012247656885,0.4535578094166794,0.49293996571258886,0.5654509218565794,1.4182781921756118,0.9886432160804021,0.458847954549859,0.0,0.9734152334152334,50,506,1507,772000,no_split,narrow,individual,1,0.722114086151123
1,1.0,0.4890731440225485,0.33456917788066864,0.3715989432390244,0.40744981900521626,0.43980994807178286,0.472404591191486,0.5052874470255899,0.5442296452906868,0.5898583812613762,0.6615658864023699,1.3972683425591845,0.9588461538461538,0.458847954549859,0.0,0.9734152334152334,50,506,1507,772000,no_split,narrow,individual,1,0.722114086151123
0,0.0,0.4496087207853688,0.3436983402569783,0.36738676745371934,0.3859021376592291,0.4070542921992897,0.42820921917075916,0.4529008648199042,0.4823419431097197,0.519523721519807,0.5804127757392163,1.2382099139889315,0.9944086021505376,0.465481199533328,0.0,0.9884293193717277,50,506,1538,772000,no_split,narrow,individual,1,0.7488949298858643
1,1.0,0.48054385793700366,0.3557788707120832,0.3858524578861127,0.4137578243721907,0.43809031407920784,0.4630049083844726,0.4915386630800774,0.523717405955627,0.5633825210042089,0.6283333263329685,1.193293385514281,0.9827551020408163,0.465481199533328,0.0,0.9884293193717277,50,506,1538,772000,no_split,narrow,individual,1,0.7488949298858643
0,0.0,0.4602942755804169,0.3622202688616287,0.3826939310659533,0.4009344989611507,0.41905846858961365,0.43836160574743566,0.45933986884218886,0.48641277142969935,0.5240062689073445,0.5867559565142033,1.3852202688616286,0.9964893617021277,0.4946639320157152,0.0,0.9890710382513661,50,506,1582,772000,no_split,narrow,individual,1,0.7327578067779541
1,1.0,0.5309644680260301,0.3943567125189234,0.4356749471117205,0.46739742172502025,0.49567728740020967,0.5221230586004386,0.5497524090195023,0.5803503358060954,0.6182120487363384,0.6733757294218355,1.1792202688616287,0.9812359550561798,0.4946639320157152,0.0,0.9890710382513661,50,506,1582,772000,no_split,narrow,individual,1,0.7327578067779541
0,0.0,0.43700427547661114,0.3402144758707445,0.3567047857113378,0.3712123025273334,0.38602968563421625,0.4032486440523665,0.42317417283229114,0.45134278244459153,0.4929272822822773,0.5762740160271251,1.417377215276464,0.9916582914572865,0.47678412636010126,0.0,0.9542857142857143,50,506,1583,772000,no_split,narrow,individual,1,0.7020740509033203
1,1.0,0.5163650779891739,0.36738596161650927,0.4084488949991512,0.44620469582539435,0.4782905320935938,0.5072486440523665,0.5350881944424458,0.5682468648257953,0.6062842959446495,0.6697996436732779,1.3717844786085724,0.9171,0.47678412636010126,0.0,0.9542857142857143,50,506,1583,772000,no_split,narrow,individual,1,0.7020740509033203
0,0.0,0.5384141919414366,0.3900590055647764,0.41439815218158865,0.4368570925901098,0.4605873906294135,0.48673774760938904,0.5204571214573849,0.5660507294511065,0.6338761195943198,0.757698373856233,1.5426918240590568,0.9702732240437159,0.5651089277247788,0.0,0.9378021978021978,50,506,1597,772000,no_split,narrow,individual,1,0.7238326072692871
1,1.0,0.5920986329642908,0.40176376061844277,0.44604707345465533,0.4845870787071618,0.5250469981789142,0.5637230663062697,0.606735612737267,0.6512067467176931,0.7136584701310209,0.8126918240590569,1.532292277927255,0.9049723756906077,0.5651089277247788,0.0,0.9378021978021978,50,506,1597,772000,no_split,narrow,individual,1,0.7238326072692871
0,0.0,0.4091058082733208,0.32834866981870486,0.3480399604134672,0.36397795797765786,0.37929653235405947,0.3950209313534968,0.41220253112793787,0.4330531368370742,0.4604365203069481,0.5042037900105305,1.0600992330010157,0.9961748633879781,0.44624397045911307,0.0,0.9877866666666667,50,506,1601,772000,no_split,narrow,individual,1,0.7122082710266113
1,1.0,0.4816412812924465,0.33920305475280144,0.37341303151265387,0.4061998402479118,0.43813339392092604,0.46942559225208413,0.5032273071797789,0.5382833018667638,0.5793441443641137,0.637871991944198,1.0696524353656913,0.9797916666666666,0.44624397045911307,0.0,0.9877866666666667,50,506,1601,772000,no_split,narrow,individual,1,0.7122082710266113
0,0.0,0.48578123397066025,0.3506173921359805,0.3771802011421795,0.39984061308306007,0.4220072400327217,0.4466398366132662,0.47597193100448776,0.5148668558084226,0.5719245613094758,0.6737126499208533,1.4455632882652065,0.9900990099009901,0.5149749420511457,0.0,0.9766666666666667,50,506,1614,772000,no_split,narrow,individual,1,0.7096219062805176
1,1.0,0.5496639363585462,0.37093005137504914,0.4211527104816868,0.45956309636953663,0.4954424262535924,0.5302584849980986,0.5676247489569146,0.609622585734992,0.6630635270655733,0.7462007651985386,1.4704975647771648,0.9607058823529412,0.5149749420511457,0.0,0.9766666666666667,50,506,1614,772000,no_split,narrow,individual,1,0.7096219062805176
0,0.0,0.45202393302824867,0.3409880210602757,0.3671368928161192,0.3898759771951171,0.4103053976740445,0.4334874785121585,0.4584741108477804,0.4879680626668437,0.5273926880818528,0.5890951476651357,1.0233594248207658,0.9994475138121547,0.4915078911556113,0.0,0.9980526315789474,50,506,1638,772000,no_split,narrow,individual,1,0.7215526103973389
1,1.0,0.5274204359850215,0.373643616256928,0.42449177910115715,0.46133512239981045,0.4935904803262231,0.522887824691834,0.5531165816192037,0.5864846114528262,0.6245564728983344,0.6790074522992797,1.128899672188551,0.99678391959799,0.4915078911556113,0.0,0.9980526315789474,50,506,1638,772000,no_split,narrow,individual,1,0.7215526103973389
0,0.0,0.38082059037959154,0.3126623537137615,0.3276087337544052,0.33905809268698556,0.3501972011951885,0.36186942898506824,0.37514747743843774,0.39047684193252025,0.414092866895643,0.4666271422929429,1.1496087337544052,0.9925510204081632,0.42059144136149373,0.0,0.9680862533692722,50,506,1657,772000,no_split,narrow,individual,1,0.7112457752227783
1,1.0,0.4651347944612242,0.3296181040593462,0.37208507877265207,0.4106166150166267,0.4393217903476592,0.4638782281250261,0.4880671297081663,0.5130109783102382,0.5446096151202471,0.5927425101837858,1.1024837383921424,0.9406857142857142,0.42059144136149373,0.0,0.9680862533692722,50,506,1657,772000,no_split,narrow,individual,1,0.7112457752227783
0,0.0,0.4554982108190436,0.3601872284022521,0.37853255600985203,0.39718581004632125,0.41545928655729975,0.43523704470142516,0.45766179238895227,0.48401665573629615,0.5200300061392948,0.577640136359999,1.1940878581479872,0.9981538461538462,0.47955825949794506,0.0,0.9903553299492386,50,506,1663,772000,no_split,narrow,individual,1,0.7137100696563721
1,1.0,0.5031346891079239,0.3911183257849376,0.422074947448908,0.4454312663975955,0.46807543972323584,0.4913643764131601,0.5157084874478587,0.5431316350304273,0.5761393334565977,0.6294531887316045,1.0533372034823034,0.982713567839196,0.47955825949794506,0.0,0.9903553299492386,50,506,1663,772000,no_split,narrow,individual,1,0.7137100696563721
0,0.0,0.47978780079877736,0.3608392267853524,0.38953000733757315,0.41293520121038024,0.43427030582850806,0.4570808412293569,0.48247964630454293,0.5113961268820343,0.5532595293151069,0.6225509942707397,1.3603332354765207,0.9934806629834254,0.51337586709712,0.0,0.9891712707182321,50,506,1761,772000,no_split,narrow,individual,1,0.7149114608764648
1,1.0,0.5469639333954625,0.37230088442745873,0.4152105251071664,0.4549192025962295,0.4922554922376367,0.5322031332849884,0.5723041944868605,0.6136692604995613,0.6643008844274587,0.736941268541969,1.4043332354765208,0.9848618784530386,0.51337586709712,0.0,0.9891712707182321,50,506,1761,772000,no_split,narrow,individual,1,0.7149114608764648
0,0.0,0.43746553069503336,0.3328367612409805,0.3558968190023309,0.37632544667915496,0.39509830666652224,0.4155723217940455,0.4355655910720484,0.4628060245157115,0.5011238481843717,0.5630583464432396,1.318688750889242,0.9921739130434782,0.473002848556373,0.0,0.983027027027027,50,506,1768,772000,no_split,narrow,individual,1,0.7122445106506348
1,1.0,0.5081580447202788,0.34289339523060286,0.3832075810507371,0.41900968313284764,0.4554388769741439,0.4906589318313058,0.5268107946024931,0.5683192455927407,0.6182502745976272,0.6951090224825007,1.381382125725636,0.9739784946236559,0.473002848556373,0.0,0.983027027027027,50,506,1768,772000,no_split,narrow,individual,1,0.7122445106506348
0,0.0,0.3777667285390465,0.2914439694907691,0.3100937403232921,0.3253579672355882,0.33997655911031804,0.3559139970240556,0.37519906535291214,0.39845652422730043,0.43270315236593127,0.48753834919955846,1.1104442084278459,0.9898324022346369,0.4027230781342427,0.0,0.978716577540107,50,506,1813,772000,no_split,narrow,individual,1,0.7245979309082031
1,1.0,0.42563172724983295,0.3017127398302577,0.3307300501272895,0.357738639817302,0.38348526109269454,0.40935619028826575,0.4378034269641135,0.4671989475219963,0.5066005635027004,0.5708530223554731,1.1187300501272897,0.9685128205128205,0.4027230781342427,0.0,0.978716577540107,50,506,1813,772000,no_split,narrow,individual,1,0.7245979309082031
0,0.0,0.4032017508263338,0.30559380137948444,0.3247704206392497,0.34124991055626663,0.35924991055626665,0.3782499105562666,0.4012734591019187,0.4286908781961156,0.46571725899040795,0.53317805632111,1.3773087819203969,0.9904390243902439,0.4248323557526801,0.0,0.9776237623762376,50,506,1821,772000,no_split,narrow,individual,1,0.7142510414123535
1,1.0,0.44711513972203176,0.32066451266338997,0.35243067263537614,0.37813983328989403,0.40551345855234233,0.4310357734224185,0.45879175601291694,0.48925013399693384,0.5311854394956035,0.5921780563211101,1.3141553401493342,0.9644221105527638,0.4248323557526801,0.0,0.9776237623762376,50,506,1821,772000,no_split,narrow,individual,1,0.7142510414123535
0,0.0,0.3948863522649845,0.3112000730255276,0.32757369924607255,0.3436548740121461,0.3585475283660728,0.3743821768342725,0.39338576917648144,0.415545733126332,0.44976523946150465,0.5043148515931974,1.13421688240942,0.987292817679558,0.4094316573078903,0.0,0.9756914893617021,50,506,3286,772000,no_split,narrow,individual,1,0.7123830318450928
1,1.0,0.42293268404002343,0.32054872519256666,0.3442261428712682,0.36621859272725743,0.3864314730972894,0.4081645513354952,0.4308994403980582,0.456831326297431,0.49020375233795604,0.5428326768702655,1.1134152356314115,0.9649230769230769,0.4094316573078903,0.0,0.9756914893617021,50,506,3286,772000,no_split,narrow,individual,1,0.7123830318450928
0,0.0,0.4645594368028953,0.35289749040462576,0.3775812204940829,0.3996827125187756,0.419604445200231,0.4407759551035503,0.46603555054310414,0.4952687998205382,0.5358249250239504,0.6053540577842393,1.2636630657387202,0.9968181818181818,0.4993267444952029,0.0,0.9921428571428571,50,506,3292,772000,no_split,narrow,individual,1,0.7114467620849609
1,1.0,0.5318748623348101,0.3720565941603057,0.4176427953210305,0.45464579705433256,0.4866827125187756,0.521306667486729,0.5557221860711028,0.5901189668585981,0.6352999989798742,0.7000580578833621,1.2668974904046257,0.9877659574468085,0.4993267444952029,0.0,0.9921428571428571,50,506,3292,772000,no_split,narrow,individual,1,0.7114467620849609
0,0.0,0.3887067438666769,0.3017262584541421,0.3205868193554675,0.3379506183192329,0.3541775448051404,0.3717765454323444,0.3901400021076255,0.41339148106799695,0.44350147415519603,0.4934110075044736,1.1050888642332484,0.9970053475935828,0.42358091346178767,0.0,0.9903376623376623,50,506,3487,772000,no_split,narrow,individual,1,0.7143981456756592
1,1.0,0.4565176291905034,0.32747812323927994,0.3663964699147518,0.39706285251098156,0.4240628525109815,0.44943829434636684,0.4750111864603124,0.5039616495983448,0.5394013431988607,0.5900205482790938,0.985081826886354,0.984040404040404,0.42358091346178767,0.0,0.9903376623376623,50,506,3487,772000,no_split,narrow,individual,1,0.7143981456756592
0,0.0,0.4012363121227218,0.3374801108109895,0.3516168891985889,0.36456783351045907,0.3759057863234705,0.38773763170252395,0.4014877923781642,0.41813279937616077,0.44106429281703313,0.4787392800301358,0.9528511848438287,0.9912437810945274,0.4247060573054376,0.0,0.9796954314720813,50,506,3580,772000,no_split,narrow,individual,1,0.7139372825622559
1,1.0,0.4491486416667117,0.3458411022896893,0.37087971521891694,0.39373763170252396,0.41575999371672745,0.43841316910445316,0.46126970675998663,0.4868588838151088,0.5185183141025284,0.5659079862403948,0.9159787237581443,0.9676683937823835,0.4247060573054376,0.0,0.9796954314720813,50,506,3580,772000,no_split,narrow,individual,1,0.7139372825622559
0,0.0,0.472485039172082,0.34744212197028285,0.37118026113296765,0.39244625698528696,0.4128091838907568,0.43706113138833314,0.4644079832169874,0.5011165167610057,0.5495717825717821,0.6406867829940446,1.4217061148900656,0.973763440860215,0.5004116232628562,0.0,0.9539226519337016,50,506,3625,772000,no_split,narrow,individual,1,0.7167782783508301
1,1.0,0.5299249450860605,0.3562440598084242,0.3926592373971162,0.431338892113138,0.46880521315408713,0.5057481442524572,0.5443036702506381,0.5879755251821274,0.6450477196694845,0.733279475546179,1.4444571995490614,0.9329545454545455,0.5004116232628562,0.0,0.9539226519337016,50,506,3625,772000,no_split,narrow,individual,1,0.7167782783508301
0,0.0,0.5126439283412084,0.4151043592967698,0.43702063788650536,0.4554956266017615,0.4737337569931365,0.49122151816212795,0.5118762632645161,0.5372799951296067,0.5699632963443205,0.6368949646153733,1.3255372223899164,0.999438202247191,0.5689255421775714,0.0,0.9965311653116531,50,506,3754,772000,no_split,narrow,individual,1,0.7171335220336914
1,1.0,0.6213764702554386,0.46580218109980365,0.5251436796751254,0.5635247436534699,0.5932283604677487,0.6200775210983236,0.6493736828998522,0.6791013393659493,0.7143370569869971,0.7663512626488147,1.2108918110643312,0.9938219895287959,0.5689255421775714,0.0,0.9965311653116531,50,506,3754,772000,no_split,narrow,individual,1,0.7171335220336914
0,0.0,0.4144069135176786,0.32613431839058654,0.3477362778257937,0.365453237079349,0.3830219481952188,0.4007720604728817,0.41996270292887605,0.4443053364435439,0.47353645345292167,0.5201247891843378,0.9323606705899707,0.9986170212765958,0.4297446414418325,0.0,0.9962694300518135,50,506,3910,772000,no_split,narrow,individual,1,0.7179744243621826
1,1.0,0.44430773664254425,0.3476623876467438,0.37453322565116154,0.3965267690899204,0.4157299877647598,0.43560544857724026,0.45627664537563284,0.48057610802391687,0.5090251618447321,0.5503151030666684,0.9768787512611032,0.9940404040404041,0.4297446414418325,0.0,0.9962694300518135,50,506,3910,772000,no_split,narrow,individual,1,0.7179744243621826
0,0.0,0.40232226982268954,0.3322852261168685,0.3468514466686681,0.35967672637160414,0.3724943643164628,0.3866636888677159,0.4027814836945931,0.42314577770816597,0.44972846028116925,0.49036950416478203,0.8138593394188743,0.9959116022099448,0.41847051495208765,0.0,0.9872631578947368,50,506,4222,772000,no_split,narrow,individual,1,0.7164828777313232
1,1.0,0.43315811479339944,0.34542941009989525,0.36843540378716144,0.3865068635519727,0.404353493777872,0.4220563244404377,0.44199578017920704,0.4651068198077686,0.4917866016427762,0.5323476837933879,0.864838110153671,0.9793969849246231,0.41847051495208765,0.0,0.9872631578947368,50,506,4222,772000,no_split,narrow,individual,1,0.7164828777313232
0,0.0,0.4492704728912348,0.31701610559785154,0.34288434678806234,0.3648789558037078,0.3866870053750222,0.40967340285568576,0.43687554449009297,0.4712053869978961,0.521631825387923,0.6222744339590679,1.458738588419981,0.9775757575757575,0.48973593074432487,0.0,0.954256926952141,50,506,4264,772000,no_split,narrow,individual,1,0.7222967147827148
1,1.0,0.529998044588103,0.3307097466829782,0.37666479807976927,0.4242213623357366,0.46810647825359125,0.5092018375565468,0.5511968622995586,0.5971118935531151,0.6578696762914467,0.7516777707386185,1.4546529373598756,0.9310552763819095,0.48973593074432487,0.0,0.954256926952141,50,506,4264,772000,no_split,narrow,individual,1,0.7222967147827148
0,0.0,0.42391295106374555,0.33967173707080395,0.36003084780695566,0.3788059034166194,0.39558687737546916,0.41279129776045553,0.4313413213836914,0.4521455427164979,0.4787053520253032,0.5212971866639443,0.9157764321906825,0.9990476190476191,0.4440427477626184,0.0,0.9977717391304348,50,506,5281,772000,no_split,narrow,individual,1,0.7274625301361084
1,1.0,0.46529711410947283,0.35581007646123763,0.3860308478069557,0.4109254848529234,0.43336261903342405,0.45516886357325204,0.47920500052206677,0.5062098167874345,0.5395406555344616,0.5864276392341284,0.9598541653739514,0.9964245810055866,0.4440427477626184,0.0,0.9977717391304348,50,506,5281,772000,no_split,narrow,individual,1,0.7274625301361084
0,0.0,0.44647453920964986,0.34941842547364266,0.3720201628736315,0.39125284289731266,0.4098411456981345,0.43002211899922826,0.4517146673498929,0.4762652772877837,0.5094155231785993,0.5642659012431291,1.049052331392999,0.9984782608695653,0.47718701218262277,0.0,0.9968648648648649,50,506,5332,772000,no_split,narrow,individual,1,0.729971170425415
1,1.0,0.5075692435107252,0.3832715168412383,0.4221969191903883,0.45151035405838785,0.4769075502091412,0.5016113612649262,0.5269285700633517,0.5544454381257535,0.5872665251984746,0.6343422845598226,0.9753600521044463,0.995268817204301,0.47718701218262277,0.0,0.9968648648648649,50,506,5332,772000,no_split,narrow,individual,1,0.729971170425415
0,0.0,0.43017239060637646,0.34251587366531017,0.3596986843423166,0.3735462569707737,0.3872111503875741,0.40145915692888395,0.41952730660774845,0.4437907680171893,0.48364169648343086,0.5670882898552851,1.1563675153076398,0.9981725888324873,0.4724835333891436,0.0,0.9915897435897436,50,506,5575,772000,no_split,narrow,individual,1,0.7338354587554932
1,1.0,0.5156715910482375,0.39893199585895645,0.4439572674593175,0.46978091315300063,0.4920640546503587,0.5128558357898971,0.5334565389355612,0.5565927432789247,0.5867824106234508,0.6314324559882827,0.9995380068515178,0.9848704663212435,0.4724835333891436,0.0,0.9915897435897436,50,506,5575,772000,no_split,narrow,individual,1,0.7338354587554932
0,0.0,0.4029828627071692,0.3312294542557322,0.34743163912856223,0.3584399377903256,0.3684318817418392,0.37879879044160597,0.3910873493158302,0.40470003770694846,0.4248261047123887,0.49162625398595755,1.1998007314203882,0.9986528497409326,0.46616831448891816,0.0,0.9879591836734694,50,506,5731,772000,no_split,narrow,individual,1,0.7370281219482422
1,1.0,0.5274486772722224,0.4161663630056786,0.4708559525387898,0.49317486917675485,0.5106632805717828,0.5275676795258157,0.5454215289779925,0.5663417849012848,0.5912919954536693,0.6333363727548096,1.1978473967941672,0.9775879396984924,0.46616831448891816,0.0,0.9879591836734694,50,506,5731,772000,no_split,narrow,individual,1,0.7370281219482422
0,0.0,0.43378617867106795,0.3520186316249566,0.3694270818122409,0.3846150807562005,0.3996589419300849,0.4158057182127369,0.4330720464739638,0.45587239888889963,0.4860798114403595,0.537717397817258,0.9956464319472144,0.9991304347826087,0.4697419108118096,0.0,0.9937874659400545,50,506,5761,772000,no_split,narrow,individual,1,0.7369537353515625
1,1.0,0.5058941223631563,0.39148302051934375,0.4301545575827199,0.45858349139918925,0.4804652267922361,0.5027100991870995,0.5240694250293578,0.5477075844399826,0.5763445399090376,0.620876291238214,1.0276672819186652,0.9884153005464481,0.4697419108118096,0.0,0.9937874659400545,50,506,5761,772000,no_split,narrow,individual,1,0.7369537353515625
0,0.0,0.4371134482978504,0.3134163816156202,0.33279500742035456,0.35062978148733903,0.3705555231281112,0.39529941379017974,0.42492624761075415,0.46535950593186487,0.5225595105686432,0.6169758757301246,1.389699910827017,0.9532142857142857,0.4528275801213115,0.0,0.922439024390244,50,506,5803,772000,no_split,narrow,individual,1,0.7383127212524414
1,1.0,0.4659617798543536,0.3269102244589987,0.35683569864358544,0.38469907401683995,0.41168896856147746,0.4381594666753217,0.46930891439655736,0.5053433914663834,0.5544354282543056,0.6357567488502297,1.39669712145976,0.8967164179104478,0.4528275801213115,0.0,0.922439024390244,50,506,5803,772000,no_split,narrow,individual,1,0.7383127212524414
0,0.0,0.4838182485080392,0.35611114274400746,0.3788276859011253,0.39943648883947996,0.4200125867153549,0.44216195378983847,0.46869061369385523,0.5035522394243742,0.559880774247795,0.6651359233033615,1.5035894851856415,0.9872636815920398,0.528184308132398,0.0,0.9665116279069768,50,506,5815,772000,no_split,narrow,individual,1,0.7480068206787109
1,1.0,0.5761282757909794,0.3832886462343542,0.43805172705972134,0.4856083907489844,0.5258858507784728,0.5638252108115067,0.6013337219002258,0.6436174214421104,0.6961176934932644,0.7752781967783261,1.4090082350520852,0.9440860215053763,0.528184308132398,0.0,0.9665116279069768,50,506,5815,772000,no_split,narrow,individual,1,0.7480068206787109
0,0.0,0.4143488424027659,0.3408257379075058,0.3586167855149568,0.373383393294866,0.38713454702976074,0.4014898808853973,0.41698959741461344,0.436319759711686,0.46217181279246883,0.502392882552826,0.9139649608980616,0.9975280898876404,0.44445886107833155,0.0,0.9933514986376022,50,506,6055,772000,no_split,narrow,individual,1,0.7371635437011719
1,1.0,0.47281644480452567,0.35750423062223924,0.3901467719872811,0.4172072699303585,0.44026905166059893,0.4653854786072407,0.4898124678948343,0.5160357366434214,0.549192976723471,0.594464714647913,0.9460831602799256,0.9894179894179894,0.44445886107833155,0.0,0.9933514986376022,50,506,6055,772000,no_split,narrow,individual,1,0.7371635437011719
0,0.0,0.4622159795065073,0.3349532292062783,0.35702252590076583,0.37814269377850857,0.4001038260307813,0.4226159954557721,0.4503709603856434,0.48714716963263255,0.5437634112829733,0.6421974484813391,1.462022525900766,0.9707142857142858,0.48414399779579026,0.0,0.9527322404371584,50,506,6109,772000,no_split,narrow,individual,1,0.7387042045593262
1,1.0,0.5094257129999047,0.3408300978887171,0.37940711965019025,0.4158049973176582,0.4521213861319656,0.48552774171775226,0.5218079420077799,0.5644976573886564,0.618147049240175,0.7050509457066502,1.4159756501773737,0.932,0.48414399779579026,0.0,0.9527322404371584,50,506,6109,772000,no_split,narrow,individual,1,0.7387042045593262
0,0.0,0.3924960138954342,0.31774817517729703,0.33353000549507367,0.34688310761747443,0.36013040302777877,0.37359027019618807,0.3892022973334207,0.409177429486136,0.437126338804765,0.48668447384786767,1.1452354516064152,0.9950943396226415,0.42708764911555996,0.0,0.9831654676258993,50,506,6214,772000,no_split,narrow,individual,1,0.7391097545623779
1,1.0,0.46286046212369003,0.3418357320807125,0.3806815765976266,0.4104079517874936,0.4347976683294259,0.45818970321814956,0.4800218529244283,0.5052354516064153,0.5357966217441477,0.582723499455562,1.0891992119515412,0.9708292682926829,0.42708764911555996,0.0,0.9831654676258993,50,506,6214,772000,no_split,narrow,individual,1,0.7391097545623779
0,0.0,0.45197440883701756,0.329314503788119,0.35430778978697913,0.37702944232746377,0.3996390626908764,0.42402319782906983,0.4505805840296399,0.4832834885685137,0.5303092817872325,0.6097469554924428,1.2648411239498456,0.9884042553191489,0.4713082075841251,0.0,0.9806896551724138,50,506,6253,772000,no_split,narrow,individual,1,0.7366628646850586
1,1.0,0.4905397110997667,0.33893271213786036,0.3738641602849252,0.40511083839557593,0.4378656426255556,0.4704275049271245,0.5066151596160992,0.5447374332326764,0.5912450147849747,0.6657991868199483,1.3506008188351026,0.973015873015873,0.4713082075841251,0.0,0.9806896551724138,50,506,6253,772000,no_split,narrow,individual,1,0.7366628646850586
0,0.0,0.44496775771475866,0.34961430985368364,0.37264454923891743,0.39023693680148347,0.4082480550996934,0.427412203002672,0.4481081924767571,0.47266136356489197,0.5065450998432124,0.5620833416630778,1.074361690757922,0.9975690607734806,0.4772515659660198,0.0,0.9945108695652174,50,506,6262,772000,no_split,narrow,individual,1,0.7392666339874268
1,1.0,0.5084995301022671,0.3725867417968688,0.4146773388443035,0.4454669097718725,0.4740909114369766,0.5009119979571435,0.5287536798247233,0.5589755257396446,0.5957273540252954,0.6467452306334355,1.1266445307605348,0.9915508021390375,0.4772515659660198,0.0,0.9945108695652174,50,506,6262,772000,no_split,narrow,individual,1,0.7392666339874268
0,0.0,0.4930590480360908,0.3918608954154646,0.41621607858040877,0.4365027825024869,0.4560693730865514,0.47664581888529256,0.49958885746869003,0.525637132706415,0.5615886201354157,0.6168608954154646,1.165316223251903,0.9990374331550802,0.5150586382476695,0.0,0.9969565217391304,50,506,6361,772000,no_split,narrow,individual,1,0.7992632389068604
1,1.0,0.5377874966430574,0.41511293955102346,0.45251565435800983,0.4796023922252108,0.5044419580269556,0.5285025147097298,0.5545038079929463,0.5828880582535394,0.6176391444263447,0.6678256727957028,1.0015461284402485,0.9948066298342542,0.5150586382476695,0.0,0.9969565217391304,50,506,6361,772000,no_split,narrow,individual,1,0.7992632389068604
0,0.0,0.4032459912335114,0.31116018469475637,0.3328978456237666,0.35186991615759355,0.37012903402619185,0.38746109587995403,0.4079030381718873,0.43300932914710216,0.4630052771792425,0.5114988995858846,1.01652311622956,0.9990163934426229,0.4300563303189298,0.0,0.9972631578947369,50,506,6427,772000,no_split,narrow,individual,1,0.7595474720001221
1,1.0,0.45496136611909016,0.33589882585335523,0.3714906193291859,0.3994590215200047,0.423741991985579,0.44786930919441925,0.4718857546095177,0.49875605001942114,0.5325007106103439,0.5806875929654848,0.9430165469749995,0.9956345177664975,0.4300563303189298,0.0,0.9972631578947369,50,506,6427,772000,no_split,narrow,individual,1,0.7595474720001221
0,0.0,0.4575921704647224,0.3612105635674393,0.37935529857094374,0.3974507231956928,0.41423383038637274,0.4346084590013537,0.4572540169978702,0.4836354085687713,0.5202261776602666,0.5869930298307932,1.1785803802368342,0.9900523560209424,0.47288234051818356,0.0,0.9801055408970977,50,506,6583,772000,no_split,narrow,individual,1,0.7479898929595947
1,1.0,0.4884165026469659,0.3746888682837099,0.4025674356136084,0.4275688341976397,0.45072174784128866,0.4725948178357428,0.4962958733619775,0.5265847115165067,0.5642894513815485,0.6203017640584101,1.0852958629557146,0.97,0.47288234051818356,0.0,0.9801055408970977,50,506,6583,772000,no_split,narrow,individual,1,0.7479898929595947
0,0.0,0.44065531916367845,0.35120974807241073,0.36975330095809517,0.38566013236971947,0.4007573076541052,0.41774675478079604,0.43767501329881636,0.46291166367663533,0.4983232175506249,0.5561628005684764,1.440539239189624,0.9913846153846154,0.4676792678816271,0.0,0.9781025641025641,50,506,6634,772000,no_split,narrow,individual,1,0.7441959381103516
1,1.0,0.4947032165995759,0.3656165999030502,0.39950668463967365,0.4280500685833244,0.45430885215374267,0.48101158321050885,0.5093628790291498,0.539928668375597,0.5792900258589994,0.6376115938207838,1.1623088521537428,0.9648205128205128,0.4676792678816271,0.0,0.9781025641025641,50,506,6634,772000,no_split,narrow,individual,1,0.7441959381103516
0,0.0,0.43860713283120123,0.35510928973745687,0.37488157346578443,0.39156104480169834,0.4064421995911461,0.4215637248270563,0.4378141313249692,0.4584787065141353,0.4875676674940754,0.5381777321726937,1.3084787065141354,0.9946315789473684,0.48309103177856966,0.0,0.9856,50,506,6844,772000,no_split,narrow,individual,1,0.734654426574707
1,1.0,0.5287771982650561,0.3706260528255297,0.41637315422349347,0.455192434499081,0.49311743973204736,0.5253075436901591,0.557102806057593,0.5895440276336444,0.6288833831779648,0.6831411961854861,1.1809278728423056,0.9763243243243244,0.48309103177856966,0.0,0.9856,50,506,6844,772000,no_split,narrow,individual,1,0.734654426574707
0,0.0,0.4395598419307212,0.34358546874714024,0.3638867060450747,0.38223357984482914,0.3990023564486047,0.41744952501868177,0.4376949959858356,0.46283360858885464,0.49888910797915725,0.5606220645076636,1.1439429252360251,0.9937704918032787,0.47086649162325106,0.0,0.979291553133515,50,506,7624,772000,no_split,narrow,individual,1,0.7347486019134521
1,1.0,0.5020029964804954,0.35936897963919784,0.3949569739084794,0.4265565374883024,0.4574594380920695,0.48775025395580074,0.5193608753857671,0.5533405270904135,0.5953755033187107,0.660645370694358,1.369000197860979,0.9648913043478261,0.47086649162325106,0.0,0.979291553133515,50,506,7624,772000,no_split,narrow,individual,1,0.7347486019134521
0,0.0,0.3956558416225804,0.33109128012256,0.3445057786976502,0.35579385565741245,0.3657284399723188,0.3767287494470667,0.3889063915953684,0.4054032219514472,0.42816401278550104,0.4762043636120014,1.161224217485901,0.9916577540106952,0.4341866339879481,0.0,0.9537859007832898,50,506,7756,772000,no_split,narrow,individual,1,0.7339379787445068
1,1.0,0.4709481552753142,0.3444032219514472,0.38076436213770115,0.41485223409833194,0.4432629231672404,0.4694990867922886,0.49297823244582323,0.5164603879352349,0.5464551945023356,0.5916848879175715,1.1171980961649344,0.9176530612244898,0.4341866339879481,0.0,0.9537859007832898,50,506,7756,772000,no_split,narrow,individual,1,0.7339379787445068
0,0.0,0.42588929380505636,0.3221941754626983,0.34680343492215826,0.3676970973603332,0.38788828940161546,0.40761598602181776,0.43137447069091617,0.4577175269063532,0.49541073754517534,0.5522513263017773,1.2417098099883397,0.9975,0.4485229669333986,0.0,0.9959893048128342,50,506,7768,772000,no_split,narrow,individual,1,0.7340953350067139
1,1.0,0.47240024847538603,0.33370847549845856,0.3696734021225061,0.40196037359852693,0.4309559441943031,0.46078936655928127,0.49070218241153585,0.5242644033090833,0.5644336130507221,0.624258400262911,1.0815616698753112,0.9943956043956044,0.4485229669333986,0.0,0.9959893048128342,50,506,7768,772000,no_split,narrow,individual,1,0.7340953350067139
0,0.0,0.39907452525233644,0.30177787853377147,0.32125340702166505,0.3383056937963503,0.3554385664758017,0.3735998219608322,0.39476280588008,0.4202170687474377,0.4557507320046384,0.5252206833859024,1.4241056891131747,0.9910160427807486,0.4335005065070084,0.0,0.9720967741935483,50,506,7807,772000,no_split,narrow,individual,1,0.7362399101257324
1,1.0,0.4682986605320011,0.3162689704893409,0.3524664802993051,0.38660001166155017,0.41867245537854747,0.4522964009486419,0.4842753056901019,0.5217357355812503,0.5696381237789303,0.6386827063749553,1.1886002962126272,0.952972972972973,0.4335005065070084,0.0,0.9720967741935483,50,506,7807,772000,no_split,narrow,individual,1,0.7362399101257324
0,0.0,0.39800518265377854,0.31597424992368545,0.33259183958531896,0.3475230110614464,0.36232676663109903,0.3786508018941037,0.39650631119090385,0.41979020074625467,0.4490707318661843,0.5029385709092452,1.0707454124349134,0.9925274725274725,0.42009033774799176,0.0,0.9822714681440443,50,506,7813,772000,no_split,narrow,individual,1,0.7367892265319824
1,1.0,0.44254563510635386,0.32817820743717835,0.3563546807818639,0.3819354066622028,0.40449473213290826,0.42962261926528916,0.4559455921926626,0.4840539689640757,0.5186116081951647,0.5731748426956602,0.9877902007462547,0.9718435754189945,0.42009033774799176,0.0,0.9822714681440443,50,506,7813,772000,no_split,narrow,individual,1,0.7367892265319824
0,0.0,0.40161056047030946,0.3240430014182015,0.34262047724977884,0.3593910078961195,0.3743910078961195,0.3906055436574792,0.4069471249919938,0.4272476460358395,0.4544958339139044,0.49483685013025047,0.8090635665159012,0.9997872340425532,0.4331323026232482,0.0,0.9983168316831683,50,506,7828,772000,no_split,narrow,individual,1,0.7318305969238281
1,1.0,0.46056789301562073,0.35692598782964347,0.3896503344226789,0.4158358082621373,0.43677610956893315,0.45785822815542104,0.47825316985376976,0.5008567745637791,0.5278741365120756,0.5664431173768398,0.8230588397383789,0.997037037037037,0.4331323026232482,0.0,0.9983168316831683,50,506,7828,772000,no_split,narrow,individual,1,0.7318305969238281
0,0.0,0.5437639228234031,0.3869888676770955,0.4180973192190629,0.44470111694930875,0.4723923687026199,0.504331193874286,0.5401561475349832,0.5843332935731161,0.6493569839353506,0.7533286006001852,1.474635015849917,0.9903703703703703,0.5700156516286202,0.0,0.98,50,506,7840,772000,no_split,narrow,individual,1,0.7345969676971436
1,1.0,0.5950741200336003,0.41059084026309434,0.45712898469762275,0.4976803990778964,0.5329124627889671,0.5698282584642728,0.6099559864072156,0.6576159338699618,0.7161347522838514,0.8069645958287464,1.5318557867831253,0.9701010101010101,0.5700156516286202,0.0,0.98,50,506,7840,772000,no_split,narrow,individual,1,0.7345969676971436
0,0.0,0.47707072536303613,0.38431711850836653,0.4060644828088427,0.4256867315623209,0.4439345886731615,0.46320525551085273,0.4850647057352313,0.5098365877648142,0.539878675657989,0.5863724274710059,0.9776927576227015,0.9995555555555555,0.5020445831408138,0.0,0.99648,50,506,7924,772000,no_split,narrow,individual,1,0.7244246006011963
1,1.0,0.5250973749356856,0.42232395356665003,0.45302411584874325,0.47655854816596127,0.4986787743354328,0.5194992754207977,0.5406215800599349,0.5632884231535308,0.5929436628267701,0.6333696853562553,0.9060807126439372,0.9936410256410256,0.5020445831408138,0.0,0.99648,50,506,7924,772000,no_split,narrow,individual,1,0.7244246006011963
0,0.0,0.4561510399466252,0.34976465968245063,0.3746032094618259,0.39692372671868964,0.41913874446782945,0.4404874077757397,0.4643996367955265,0.4929847857102245,0.5275850495050989,0.5844496325134941,0.9580800435829288,0.9991578947368421,0.47799028844762453,0.0,0.9975189873417721,50,506,7939,772000,no_split,narrow,individual,1,0.7220659255981445
1,1.0,0.49823154315586776,0.37500489226504824,0.41043630014115007,0.438178841511155,0.4648516301808986,0.48939963679552645,0.515683064486359,0.5443329325033844,0.580171435453862,0.6303326716540123,1.0094463090867611,0.996,0.47799028844762453,0.0,0.9975189873417721,50,506,7939,772000,no_split,narrow,individual,1,0.7220659255981445
0,0.0,0.43450832585428667,0.3246195662600958,0.3504837161600302,0.372815302134113,0.39419743220362286,0.41531383998758087,0.4396381186947996,0.4671760288952602,0.5041870053994615,0.5680513028373969,1.1536851356940114,0.9962424242424243,0.46227695656820544,0.0,0.9940677966101695,50,506,8026,772000,no_split,narrow,individual,1,0.716202974319458
1,1.0,0.4865194119533727,0.33967716582872326,0.3794837161600302,0.4125079379317518,0.44393155279376517,0.4743579379046431,0.505232317702632,0.5398347459364321,0.5824345761903824,0.644776827744554,1.2119140739676866,0.9921693121693121,0.46227695656820544,0.0,0.9940677966101695,50,506,8026,772000,no_split,narrow,individual,1,0.716202974319458
0,0.0,0.4453258306868648,0.31888850186218487,0.33988140944710793,0.3601191226387415,0.38013440706448987,0.4044601768772572,0.43313635186114524,0.4719987670937075,0.5286482241324157,0.6276566055455702,1.445936268698873,0.9697326203208556,0.46559481200691466,0.0,0.9404383561643835,50,506,8311,772000,no_split,narrow,individual,1,0.7190659046173096
1,1.0,0.4868886294611243,0.3329893083762514,0.3683452261705897,0.4001369544687813,0.4302168420063345,0.4612356305353333,0.49508945038066376,0.5337975963933745,0.5866557445743044,0.6701799062914702,1.4484454563965898,0.9096629213483146,0.46559481200691466,0.0,0.9404383561643835,50,506,8311,772000,no_split,narrow,individual,1,0.7190659046173096
0,0.0,0.3771485059676899,0.30437524343563116,0.3213753803314735,0.33555057084746837,0.3493538786630397,0.3623275060566721,0.3765507436782117,0.3944109549241389,0.4191298831184438,0.46160927140969477,1.145374246565948,0.9952331606217617,0.4184456802378782,0.0,0.9830894308943089,50,506,8446,772000,no_split,narrow,individual,1,0.7214963436126709
1,1.0,0.4637317861137097,0.3205501675757339,0.359848547034051,0.39655387311456186,0.43035314147670983,0.45957938872868587,0.4885248400882852,0.5205574522335941,0.5555566228073257,0.6045805640119557,1.111550167575734,0.9697727272727272,0.4184456802378782,0.0,0.9830894308943089,50,506,8446,772000,no_split,narrow,individual,1,0.7214963436126709
0,0.0,0.48067577839787684,0.38363535667627213,0.40327668709693876,0.4228813725451626,0.440656978248377,0.46052657378289824,0.4819768400665226,0.5079470395705517,0.5438581615290199,0.6038794570617246,1.0478348062465868,0.9937688442211056,0.4974609019376537,0.0,0.986909090909091,50,506,8521,772000,no_split,narrow,individual,1,0.7207064628601074
1,1.0,0.5154191792732213,0.39527563185087267,0.425179117952138,0.4514752978785441,0.4762139031500677,0.5013265511561852,0.5276869304880555,0.5561199641999988,0.5925858975531157,0.6534085222857917,1.1218756858092398,0.9795698924731183,0.4974609019376537,0.0,0.986909090909091,50,506,8521,772000,no_split,narrow,individual,1,0.7207064628601074
0,0.0,0.5439310678916769,0.40589193322777484,0.436911230553624,0.4631069119716733,0.4906655660122702,0.519651690439392,0.5516716761122572,0.5865698327209922,0.6379451948780326,0.7190495213202095,1.3101586951772761,0.9972677595628415,0.5641844024776131,0.0,0.9948997134670488,50,506,8704,772000,no_split,narrow,individual,1,0.7114503383636475
1,1.0,0.586511873738013,0.4283814922597107,0.4693852654063112,0.5063979529537463,0.5376563658755777,0.5707431967898393,0.6046426006572512,0.6438860554906495,0.6896277860465688,0.7638944507340723,1.5277557444867371,0.9922891566265061,0.5641844024776131,0.0,0.9948997134670488,50,506,8704,772000,no_split,narrow,individual,1,0.7114503383636475
0,0.0,0.4285397092730687,0.32801557060682396,0.3447972619390084,0.35939720115623586,0.3718921796792273,0.3865570515719041,0.40664985158200395,0.4414983638517511,0.5154559191799437,0.6030317831564753,1.1978921796792275,0.9993236714975845,0.4683662531746574,0.0,0.9930927835051546,50,506,8755,772000,no_split,narrow,individual,1,0.7168841361999512
1,1.0,0.5139137370842092,0.41749250150936806,0.4493606133272123,0.4697498027905161,0.48850604057211977,0.506701372910533,0.5262870795520466,0.54837377519303,0.5786968810956523,0.6270667915772241,1.0233773304856795,0.9859668508287293,0.4683662531746574,0.0,0.9930927835051546,50,506,8755,772000,no_split,narrow,individual,1,0.7168841361999512
0,0.0,0.43638937632296093,0.348153919666055,0.36119762350169543,0.37138388057642874,0.3824931918805621,0.39551686781403256,0.41351246082826115,0.44352540340493807,0.5052701456953081,0.596141524581006,1.3488202396851399,0.9979807692307693,0.47285731478449944,0.0,0.97775,50,506,8785,772000,no_split,narrow,individual,1,0.7140450477600098
1,1.0,0.5123642481178328,0.408962511631406,0.4449719235982456,0.4672568463446227,0.48544585683223557,0.5031457967436901,0.5222455650120021,0.5456950275917434,0.5764585900333379,0.6241183290722516,1.2657058826157495,0.9558333333333333,0.47285731478449944,0.0,0.97775,50,506,8785,772000,no_split,narrow,individual,1,0.7140450477600098
0,0.0,0.396812229059835,0.3085618533188111,0.3260574837931048,0.3406152314668008,0.35429272080986374,0.36912072030296367,0.3869867209117765,0.40964238818329574,0.4438150317154308,0.5109827304209164,1.3872927208098638,0.9886170212765958,0.4405390104961419,0.0,0.958508997429306,50,506,8788,772000,no_split,narrow,individual,1,0.7118048667907715
1,1.0,0.48143769164054845,0.32390581318641976,0.367866748009434,0.4073273406562344,0.4445225173466271,0.47572405252649863,0.5048590540670144,0.5358687349199276,0.5745638871828804,0.6349488154578834,1.328837773023387,0.9303482587064676,0.4405390104961419,0.0,0.958508997429306,50,506,8788,772000,no_split,narrow,individual,1,0.7118048667907715
0,0.0,0.42747482435787976,0.36619080908006224,0.3792835047604673,0.3909178804885875,0.40225506703574326,0.41443051952895205,0.4284648823788848,0.4446170875253349,0.4668866072669791,0.5035084890300231,0.9089682035752477,0.997,0.4512015912066958,0.0,0.9888524590163934,50,506,161753,772000,no_split,narrow,individual,1,0.7110621929168701
1,1.0,0.47416297847974354,0.3867335539994768,0.4122584334484269,0.43150415266445247,0.44949661724257606,0.46700838868254635,0.48453825712595877,0.5047584099477355,0.5303963770962793,0.5690474467115194,1.1454758171468165,0.9809677419354839,0.4512015912066958,0.0,0.9888524590163934,50,506,161753,772000,no_split,narrow,individual,1,0.7110621929168701
0,0.0,0.44822752281688616,0.3675063487681281,0.3864342724124035,0.4020693348228459,0.4187983815182231,0.43530345859347463,0.4514825357879307,0.47244557484125294,0.49983650643268973,0.5468020469022689,1.070152148438944,0.9975257731958763,0.4721689535034402,0.0,0.9937765957446808,50,506,337788,772000,no_split,narrow,individual,1,0.7218813896179199
1,1.0,0.49768894005943737,0.38606933482284594,0.4166592818457748,0.4435273992223613,0.4665242781988528,0.48921900506471194,0.5121521484389441,0.5384798886347567,0.5703284126269748,0.6162530630704807,1.0056680264729245,0.9897802197802198,0.4721689535034402,0.0,0.9937765957446808,50,506,337788,772000,no_split,narrow,individual,1,0.7218813896179199
