,congruency,mean_rt,qu10_rt,qu20_rt,qu30_rt,qu40_rt,qu50_rt,qu60_rt,qu70_rt,qu80_rt,qu90_rt,qu100_rt,mean_acc,mean_rt_overall,nonconvergent_trials,accuracy_overall,n_posterior_draws,condition,id,slurm_id,split,spacing,estimation_level,number_parts,time_post_sampling_sec
0,0.0,0.4141828771127115,0.33933594303843667,0.3554850208662143,0.36979679511416463,0.38262206275411614,0.39600175226059975,0.41210843094643057,0.432151390454472,0.45993518633633074,0.5117281834084013,1.0575369059756963,0.9706315789473684,0.42041064331274897,0.0,0.9612698412698413,50,1167,1108,772033,no_split,wide,individual,1,0.4930124282836914
1,1.0,0.4267046623447016,0.34886578036583216,0.36690484633151466,0.3815253532623032,0.3953460533924133,0.41026163958082956,0.428124626542847,0.4491249723506692,0.47706079014370106,0.5255924009943274,0.9919972756138409,0.9518085106382979,0.42041064331274897,0.0,0.9612698412698413,50,1167,1108,772033,no_split,wide,individual,1,0.4930124282836914
0,0.0,0.4429516877748611,0.3546938891728017,0.3763182586582736,0.393105580985855,0.4089575455632378,0.425322176654342,0.4442580085071235,0.46665498346988443,0.4981120150309221,0.5513792614515938,1.1570224214843372,0.9646560846560847,0.44671783705798007,0.0,0.9561578947368421,50,1167,1507,772033,no_split,wide,individual,1,0.45371103286743164
1,1.0,0.45044455022295116,0.35996058417619775,0.3815942571935556,0.39935886784040403,0.416766587831791,0.4338569911739695,0.45310185407475956,0.4786240411793124,0.5099355407253596,0.5615972589906616,1.044882444048217,0.9477486910994765,0.44671783705798007,0.0,0.9561578947368421,50,1167,1507,772033,no_split,wide,individual,1,0.45371103286743164
0,0.0,0.45084233308545674,0.3518365130995896,0.37734249161871125,0.3974327133265621,0.4145465863888623,0.43344531638944295,0.4532534863565527,0.47880410370092974,0.5141864547476899,0.5704234636821227,1.1386021094638503,0.9893684210526316,0.45933765211617167,0.0,0.9850918635170604,50,1167,1538,772033,no_split,wide,individual,1,0.4518308639526367
1,1.0,0.4677884930367781,0.3648833224815592,0.3913832580284307,0.411436469162292,0.4306110683836709,0.451675864622765,0.47529660027325027,0.5016412257557719,0.5348880849175637,0.5901282232728993,1.1216591320754445,0.9808376963350786,0.45933765211617167,0.0,0.9850918635170604,50,1167,1538,772033,no_split,wide,individual,1,0.4518308639526367
0,0.0,0.46249097521722193,0.3753404302272832,0.3956824231821136,0.41257458947850784,0.4290051601812063,0.4460362795835779,0.46526342857636815,0.4875476366978054,0.5188591983674261,0.5729662532268285,1.2206922118319248,0.9866304347826087,0.46721691194495796,0.0,0.9848648648648649,50,1167,1582,772033,no_split,wide,individual,1,0.4539928436279297
1,1.0,0.47189203214873965,0.38259544965370323,0.40426180342437534,0.42271202433551575,0.4387749383176227,0.4568727415698883,0.47483565995577576,0.49755903958327147,0.5299347843247744,0.5795127660612767,1.184160802169559,0.9831182795698925,0.46721691194495796,0.0,0.9848648648648649,50,1167,1582,772033,no_split,wide,individual,1,0.4539928436279297
0,0.0,0.4328787947535991,0.35731024891605023,0.3758789521822209,0.3900041591544945,0.40288344208847005,0.4169856859539222,0.4323235563166336,0.45269364695115166,0.4797167695992982,0.5259022299479374,1.1608624642013123,0.9721465968586387,0.444889661479066,0.0,0.9473629242819843,50,1167,1583,772033,no_split,wide,individual,1,0.45711755752563477
1,1.0,0.45683797160700435,0.3698800422052415,0.39087243038335173,0.40825079576288076,0.4250468252110028,0.4420947679089606,0.46065268504790713,0.4833814420850692,0.512737841156894,0.5615283662482504,1.0672013833538705,0.9227083333333334,0.444889661479066,0.0,0.9473629242819843,50,1167,1583,772033,no_split,wide,individual,1,0.45711755752563477
0,0.0,0.569070651438325,0.4061720574196465,0.4405656452018548,0.46980155774571675,0.4985543496600609,0.5303524701191151,0.5660906735658249,0.6113479286443306,0.6745432373341242,0.785707539811166,1.5679180906390675,0.9666666666666667,0.5706824945295114,0.0,0.9658791208791209,50,1167,1597,772033,no_split,wide,individual,1,0.46146297454833984
1,1.0,0.5722081428029872,0.4118275089956582,0.44529058410031236,0.47372290089628555,0.5027682941665432,0.5348062747539863,0.570704769256693,0.6162861107094604,0.6774468155987685,0.7851045616609854,1.5864899428863728,0.9651336898395722,0.5706824945295114,0.0,0.9658791208791209,50,1167,1597,772033,no_split,wide,individual,1,0.46146297454833984
0,0.0,0.4044228155086838,0.331605516923209,0.3518367840478753,0.3675750616105053,0.38226247248109,0.3953790742835361,0.40998912533584797,0.4267202551971688,0.44966170255857535,0.48618327034244124,0.8579401095506077,0.9946315789473684,0.41288447882922064,0.0,0.988707124010554,50,1167,1601,772033,no_split,wide,individual,1,0.46563243865966797
1,1.0,0.4213909128551571,0.3431905380599651,0.3640570573186344,0.3810829345352364,0.39698780800519096,0.41227868432319903,0.4280956218542908,0.4464154359286606,0.4712454808625056,0.5112456272631096,0.9060998521841995,0.9827513227513227,0.41288447882922064,0.0,0.988707124010554,50,1167,1601,772033,no_split,wide,individual,1,0.46563243865966797
0,0.0,0.4810929191133491,0.34762933073352353,0.377932021336019,0.4027000750291457,0.4262604022509281,0.45144177631201843,0.47850695166150586,0.5163942720140189,0.5685768783522709,0.654198463985143,1.436912059174887,0.9698947368421053,0.48711488137807024,0.0,0.9661052631578947,50,1167,1614,772033,no_split,wide,individual,1,0.46758055686950684
1,1.0,0.4931368436427914,0.35696848072148574,0.3880622811091645,0.4144742096184973,0.4388549430388929,0.46441588458990696,0.49534666247544645,0.5299607134038979,0.5812010943831779,0.6672835290801318,1.4291945191331457,0.9623157894736842,0.48711488137807024,0.0,0.9661052631578947,50,1167,1614,772033,no_split,wide,individual,1,0.46758055686950684
0,0.0,0.4279802967000151,0.3733679282513893,0.3885738714451497,0.40042922940544384,0.4110084344356013,0.4217219339848819,0.43268178014809155,0.4456320047301293,0.462609224944836,0.48992193436735704,0.782834733172255,0.9952631578947368,0.4326929725983677,0.0,0.9933858267716535,50,1167,161753,772033,no_split,wide,individual,1,0.4750633239746094
1,1.0,0.43738097480091737,0.37917431275886004,0.3949718263970486,0.40741667127187786,0.4186357759050038,0.43047530717859717,0.44247730589967393,0.456807612091611,0.4745442712090551,0.5045513175712157,0.7699156416239608,0.9915183246073298,0.4326929725983677,0.0,0.9933858267716535,50,1167,161753,772033,no_split,wide,individual,1,0.4750633239746094
0,0.0,0.46597014805394027,0.3702434834557141,0.3926833749164954,0.4109237906587764,0.4274085025741393,0.4457822144374354,0.4659496380273212,0.4904283662720066,0.527611790116147,0.5841834681873933,1.2192411817978086,0.9815957446808511,0.4724115924109727,0.0,0.9762005277044855,50,1167,1638,772033,no_split,wide,individual,1,0.47766661643981934
1,1.0,0.4787518622493085,0.38143742691887783,0.4038887257246604,0.42209467508978304,0.4393071595211218,0.45818764836733883,0.47906687123372454,0.504966676553758,0.5411396004593457,0.6021645370281833,1.1923554664347182,0.970890052356021,0.4724115924109727,0.0,0.9762005277044855,50,1167,1638,772033,no_split,wide,individual,1,0.47766661643981934
0,0.0,0.38961704739124725,0.3237186963243702,0.34156380420640203,0.35530617968723455,0.36721793381187573,0.3798713943794769,0.3933417614366747,0.4087121832687633,0.4305318207377744,0.4676366875600124,0.9266365116522736,0.9793684210526316,0.39664296497931684,0.0,0.9677572559366755,50,1167,1657,772033,no_split,wide,individual,1,0.48128533363342285
1,1.0,0.40370605673451904,0.33064232155397066,0.3504078600846282,0.36494804098108646,0.3784737197555432,0.3926049973271698,0.40838131919459675,0.4263086025445844,0.4506215291397824,0.48810541253426387,0.8591657859720222,0.9560846560846561,0.39664296497931684,0.0,0.9677572559366755,50,1167,1657,772033,no_split,wide,individual,1,0.48128533363342285
0,0.0,0.4626471017632953,0.373212117919482,0.3931478707485218,0.4095455206676509,0.42529675337513145,0.4424079478497347,0.46056108367644816,0.4855927746317508,0.5194868221762067,0.5783401951252026,1.148576516608102,0.9903191489361702,0.4707634161749793,0.0,0.9860846560846561,50,1167,1663,772033,no_split,wide,individual,1,0.4812164306640625
1,1.0,0.4787942956981192,0.3842412541823367,0.40567213434360516,0.4241457502344837,0.44162386316603613,0.46104187304738614,0.481960689468686,0.506104971635921,0.5409424411642753,0.5957718549536207,1.1403288445821358,0.9818947368421053,0.4707634161749793,0.0,0.9860846560846561,50,1167,1663,772033,no_split,wide,individual,1,0.4812164306640625
0,0.0,0.5128089662725799,0.3985208764302219,0.42757041997674167,0.44885612491401156,0.4702020021645224,0.491560999873744,0.5148819837633566,0.5433596980957541,0.5835719762353846,0.6536157811684816,1.4088373007475348,0.9763440860215054,0.5210280466757758,0.0,0.9679356568364611,50,1167,1761,772033,no_split,wide,individual,1,0.48650407791137695
1,1.0,0.5292031747773506,0.41070485377488053,0.44044905375179705,0.46349685628783743,0.4864775023318884,0.5093718984929765,0.5344914311354008,0.5636383217707183,0.6051331125897198,0.6760419808646302,1.4355263123200617,0.959572192513369,0.5210280466757758,0.0,0.9679356568364611,50,1167,1761,772033,no_split,wide,individual,1,0.48650407791137695
0,0.0,0.44233063037730963,0.34037988834746474,0.3660390278996824,0.3874261573540057,0.40673760582081525,0.4259025134589952,0.44751533556141465,0.47282058022826207,0.5061641901153123,0.5668490696380019,1.158738678705924,0.9347643979057592,0.4457335334025371,0.0,0.9284816753926701,50,1167,1768,772033,no_split,wide,individual,1,0.48680543899536133
1,1.0,0.4491364364277646,0.347824807955372,0.37368308727845617,0.3945721394139609,0.413807678583185,0.4336388391230675,0.4551658415959238,0.4798590800883842,0.5145035320475628,0.569671124716892,1.0601800744310492,0.9221989528795812,0.4457335334025371,0.0,0.9284816753926701,50,1167,1768,772033,no_split,wide,individual,1,0.48680543899536133
0,0.0,0.36662521234051143,0.29771052216149224,0.31746625949067325,0.3316096819216605,0.3443791002388285,0.3575277983634627,0.37222034883117744,0.38900265643389126,0.40990526230960667,0.4452734077281994,0.8287826886007886,0.9519148936170213,0.37028083569995435,0.0,0.9402127659574468,50,1167,1813,772033,no_split,wide,individual,1,0.4999966621398926
1,1.0,0.3739364590593973,0.30043312916646553,0.32100358226873527,0.3364914550895879,0.35023943279088127,0.36504349826114296,0.38026392636293355,0.39788585609620314,0.42103916772813954,0.45758802315304564,0.7741473869724058,0.9285106382978724,0.37028083569995435,0.0,0.9402127659574468,50,1167,1813,772033,no_split,wide,individual,1,0.4999966621398926
0,0.0,0.3870111393614803,0.31352228269955956,0.33142705774725334,0.3457417035550024,0.35917701225673193,0.37255428045851446,0.38740265606958546,0.40558917791127064,0.43342762345621333,0.4797354826895957,0.9821645952954968,0.9843157894736843,0.39003463238103425,0.0,0.9815748031496063,50,1167,1821,772033,no_split,wide,individual,1,0.4944157600402832
1,1.0,0.39304229559420323,0.31633091878374514,0.3347246911355454,0.34950990118110653,0.3641355320661076,0.37890117101849063,0.3951771216656079,0.4152048634059846,0.44190691389244213,0.4875204942571761,0.9496444850542063,0.9788481675392671,0.39003463238103425,0.0,0.9815748031496063,50,1167,1821,772033,no_split,wide,individual,1,0.4944157600402832
0,0.0,0.44166210098342756,0.3508261233769083,0.3717992714579306,0.38954200511510084,0.4056368064298044,0.42185390649422033,0.4414169280764065,0.46609192728741344,0.49901047654886366,0.5587089132476727,1.231334277014131,0.9904712041884817,0.44334347922463,0.0,0.9894148936170213,50,1167,275,772033,no_split,wide,individual,1,0.4933433532714844
1,1.0,0.4450793886520335,0.3529530445421326,0.3745283984050629,0.3920224651089489,0.4088696290159581,0.42628721339684594,0.4459699091648908,0.47062411867233256,0.5038228358172138,0.5595921937597789,1.2185170308187694,0.9883243243243244,0.44334347922463,0.0,0.9894148936170213,50,1167,275,772033,no_split,wide,individual,1,0.4933433532714844
0,0.0,0.374117873736639,0.30669744443731084,0.321706890606316,0.3338892835147219,0.34616080972422686,0.35929109063874065,0.3743343195246896,0.3923763022253905,0.41717382591689606,0.46086019766345476,0.9711773553491622,0.9774468085106383,0.3782919671643332,0.0,0.9756498673740053,50,1167,3286,772033,no_split,wide,individual,1,0.5035583972930908
1,1.0,0.3824439754416164,0.3104125425404806,0.3263026614158961,0.3393578746775412,0.3526516985669967,0.36585364588296426,0.3822030640812907,0.4010127512587939,0.4282406293861155,0.4756400264709531,0.9775514411504791,0.9738624338624339,0.3782919671643332,0.0,0.9756498673740053,50,1167,3286,772033,no_split,wide,individual,1,0.5035583972930908
0,0.0,0.4540420910539131,0.3593871528139288,0.3824780856337396,0.40104453278803465,0.41857249251361084,0.43726440673931827,0.4568641723695213,0.4794823214543967,0.5125358020696281,0.5697236039971914,1.2036443038195426,0.9845502645502645,0.459278965015847,0.0,0.9811609498680739,50,1167,3292,772033,no_split,wide,individual,1,0.5044529438018799
1,1.0,0.4644882764832444,0.36623165030009297,0.39164616548171116,0.4110550236144298,0.4285290878144632,0.44785013699664517,0.4689508659000386,0.4945422710861095,0.526739235544626,0.5827092508729047,1.0741192976992038,0.9777894736842105,0.459278965015847,0.0,0.9811609498680739,50,1167,3292,772033,no_split,wide,individual,1,0.5044529438018799
0,0.0,0.4487247329938897,0.36808524188785624,0.3904815853804267,0.40666090172898184,0.42087695666221503,0.43652628794832526,0.45339802621023584,0.47419788483628567,0.501117225713648,0.5426176491010976,1.1044601357177517,0.9931578947368421,0.4522421198553352,0.0,0.9908661417322835,50,1167,337788,772033,no_split,wide,individual,1,0.5079457759857178
1,1.0,0.45574109107876276,0.37297222318820805,0.39625743453301104,0.4138073862323557,0.4293270400625779,0.44563512569152935,0.4629235047045665,0.4827438599280543,0.5087417525699903,0.5512769289781851,1.042815429718767,0.988586387434555,0.4522421198553352,0.0,0.9908661417322835,50,1167,337788,772033,no_split,wide,individual,1,0.5079457759857178
0,0.0,0.4017840023968105,0.32489988378463164,0.3426749668251085,0.35718691527953733,0.3707022577293672,0.38432745013417924,0.40077329691535035,0.4201775327636884,0.4480724655883643,0.4986218533996266,1.0300485026429924,0.9796791443850268,0.41143478364217756,0.0,0.9669354838709677,50,1167,3487,772033,no_split,wide,individual,1,0.5027601718902588
1,1.0,0.4211898976577649,0.33484773906877485,0.355037487413979,0.3714026749914778,0.3869107694676745,0.4041792160981596,0.42364077777168796,0.446716508957766,0.47863926602298534,0.5298527476124217,1.0333088937710744,0.9540540540540541,0.41143478364217756,0.0,0.9669354838709677,50,1167,3487,772033,no_split,wide,individual,1,0.5027601718902588
0,0.0,0.4046204134417976,0.3434988091200746,0.3611876759176577,0.3742660002774285,0.3860662204257444,0.3985378714769696,0.410188485355271,0.4241017579282965,0.44258256411300584,0.4718489565725303,1.0005363568494587,0.9855497382198953,0.4102331928704784,0.0,0.9756084656084656,50,1167,3580,772033,no_split,wide,individual,1,0.5083041191101074
1,1.0,0.41596603175217906,0.3505074414088261,0.3682553128532107,0.3824090957578854,0.3947925516499592,0.4077851123970877,0.42155789011448325,0.4368609003761087,0.4585110381739824,0.49152981104525056,0.7573083265595005,0.9654545454545455,0.4102331928704784,0.0,0.9756084656084656,50,1167,3580,772033,no_split,wide,individual,1,0.5083041191101074
0,0.0,0.4678330488566403,0.3688997608254256,0.39467974114762,0.41443141278220136,0.4321340746790727,0.44985630594615855,0.4700270661794864,0.49347023803181145,0.5287259793570326,0.5905952984099598,1.3898117696487156,0.9596703296703297,0.47852595048617,0.0,0.9385082872928177,50,1167,3625,772033,no_split,wide,individual,1,0.5070695877075195
1,1.0,0.4893376621338056,0.3838697665254011,0.4104108005059744,0.43305901939663155,0.45354832145876345,0.47270474642808324,0.49446154343795823,0.5206401275972856,0.5553181790030874,0.6154273486963684,1.1117617052805495,0.9171111111111111,0.47852595048617,0.0,0.9385082872928177,50,1167,3625,772033,no_split,wide,individual,1,0.5070695877075195
0,0.0,0.5489334834626751,0.4360718857377201,0.4659744342373654,0.490511573024392,0.5114549698560666,0.5326047273822083,0.5548571729921067,0.5834497466008095,0.6210083520694304,0.6813849268436181,1.3381249667726012,0.9936125654450262,0.556577754442201,0.0,0.9924409448818897,50,1167,3754,772033,no_split,wide,individual,1,0.4983246326446533
1,1.0,0.564262258426882,0.4474487616671312,0.4792624870259657,0.5039433119515747,0.5266446157309674,0.5499891452989021,0.5736142887820519,0.6006396451546748,0.6388600618440914,0.7002420018820483,1.2520767683074334,0.9912631578947368,0.556577754442201,0.0,0.9924409448818897,50,1167,3754,772033,no_split,wide,individual,1,0.4983246326446533
0,0.0,0.41068698383922975,0.33775511196511965,0.35584018164625136,0.3707500533415375,0.383676009711685,0.39755312167624557,0.4131745259193019,0.43197322054297416,0.45653935322346706,0.49911960671227484,1.0216683465003076,0.96994708994709,0.41468354647435307,0.0,0.9642744063324539,50,1167,3910,772033,no_split,wide,individual,1,0.512354850769043
1,1.0,0.4186590745692915,0.34226765771672646,0.3617848996289811,0.3772404224179503,0.39158702274218193,0.40555001502070276,0.42094509775009226,0.44023444840890724,0.46776153073198556,0.5103048912309193,0.9492329075792632,0.9586315789473684,0.41468354647435307,0.0,0.9642744063324539,50,1167,3910,772033,no_split,wide,individual,1,0.512354850769043
0,0.0,0.40143873600823216,0.33702623778016255,0.3529049959005567,0.3654151006187529,0.3770201651617431,0.38840553001693756,0.40166694449757945,0.4190078921416439,0.4414490221564846,0.48219757713250594,0.9173661994135869,0.9778947368421053,0.40477908149961983,0.0,0.9738786279683377,50,1167,4222,772033,no_split,wide,individual,1,0.5104782581329346
1,1.0,0.4081371007766762,0.3426252056986624,0.3582043695171239,0.3706765724464757,0.3828142221885499,0.39494990063813495,0.40952998646176986,0.4274433537621075,0.45109058090312354,0.48909210156037347,0.8474427636700566,0.9698412698412698,0.40477908149961983,0.0,0.9738786279683377,50,1167,4222,772033,no_split,wide,individual,1,0.5104782581329346
0,0.0,0.44713357116945296,0.3420723217055542,0.36780830260764696,0.38751399747202,0.4052962509179065,0.4248705431597122,0.44652770140089376,0.47323844867422243,0.5148441891987844,0.5810152826478189,1.256817598524328,0.9481481481481482,0.45729747069978305,0.0,0.9242857142857143,50,1167,4264,772033,no_split,wide,individual,1,0.5029561519622803
1,1.0,0.4674613702301131,0.3571896992566793,0.3831866700025118,0.4051696400021223,0.42637683959685224,0.4477595900310962,0.47213695198190775,0.49892008360299506,0.5385996053631606,0.6041298691371173,1.115533649685632,0.9004232804232805,0.45729747069978305,0.0,0.9242857142857143,50,1167,4264,772033,no_split,wide,individual,1,0.5029561519622803
0,0.0,0.43068118668224975,0.3706122864348837,0.3854318336169658,0.39663887801339964,0.40818199684194095,0.41945979287776425,0.4319746348630035,0.4471075029335752,0.4693602011223395,0.5037009320557355,0.9370125594847584,0.9889361702127659,0.4337458232137575,0.0,0.9857066666666666,50,1167,5281,772033,no_split,wide,individual,1,0.509580135345459
1,1.0,0.43682684817591505,0.3725298264797765,0.38837649316776285,0.40051365439393055,0.4126920552357913,0.4244213871490051,0.4390496154528856,0.4561194488732156,0.47816675491689,0.5163066602810894,0.9643594362870376,0.9824598930481283,0.4337458232137575,0.0,0.9857066666666666,50,1167,5281,772033,no_split,wide,individual,1,0.509580135345459
