,congruency,mean_rt,qu10_rt,qu20_rt,qu30_rt,qu40_rt,qu50_rt,qu60_rt,qu70_rt,qu80_rt,qu90_rt,qu100_rt,mean_acc,mean_rt_overall,nonconvergent_trials,accuracy_overall,n_posterior_draws,condition,id,slurm_id,split,spacing,estimation_level,number_parts,time_post_sampling_sec
0,0.0,0.4275871399356071,0.3411764058011634,0.35987692523918163,0.37500578937042744,0.3903785391111934,0.4074835899921684,0.4278200516243156,0.4525762424420874,0.48720887837542926,0.5415707843199634,1.145883210716164,0.9696842105263158,0.42763050459424556,0.0,0.9688888888888889,50,566,1108,772019,no_split,wide,individual,1,0.47120094299316406
1,1.0,0.4276743305790398,0.3540370855928441,0.3727770402016422,0.3871440937653916,0.4014154786270639,0.4157544097530465,0.43066037762029563,0.44853266622691756,0.4729826329175119,0.5155479124409318,1.0562435779336332,0.9680851063829787,0.42763050459424556,0.0,0.9688888888888889,50,566,1108,772019,no_split,wide,individual,1,0.47120094299316406
0,0.0,0.44293653301058855,0.3572553936845365,0.3791499099259954,0.39556746100663304,0.41079633517865166,0.4265856463153859,0.443538899637348,0.4645944675074172,0.4954297993730662,0.55179021609276,0.9369751914740498,0.9766137566137566,0.45504418628676896,0.0,0.9639473684210527,50,566,1507,772019,no_split,wide,individual,1,0.4654383659362793
1,1.0,0.46702505785325127,0.3691909776106018,0.39231033070363164,0.4122391369847093,0.4306434704980025,0.45000371220332513,0.47199933916833836,0.49725364637718267,0.5297362478953161,0.5887064369311883,1.042856081710008,0.951413612565445,0.45504418628676896,0.0,0.9639473684210527,50,566,1507,772019,no_split,wide,individual,1,0.4654383659362793
0,0.0,0.45468003002331747,0.3560783048372851,0.38143006759789955,0.401314672828267,0.4191944163079883,0.43771207371730325,0.4570362194133853,0.4820680081565981,0.5170003138511207,0.5762267576693775,1.069343197780928,0.991578947368421,0.46478939654346846,0.0,0.9838320209973753,50,566,1538,772019,no_split,wide,individual,1,0.46552491188049316
1,1.0,0.4748458344430952,0.3754764933889755,0.4021538830139653,0.4218806447452727,0.4410265620052875,0.4595581785483621,0.48077466990133416,0.506671096276559,0.5375001741106072,0.5910451844498201,1.1831935130182474,0.9761256544502618,0.46478939654346846,0.0,0.9838320209973753,50,566,1538,772019,no_split,wide,individual,1,0.46552491188049316
0,0.0,0.47652461612404673,0.37866465315959236,0.40260095497904114,0.4222822472948877,0.4393540651079143,0.45765098767663914,0.4784298203697998,0.5052318666541088,0.5394632099222988,0.5983939227676862,1.1668064764230563,0.9882608695652174,0.4752344097358639,0.0,0.9886486486486487,50,566,1582,772019,no_split,wide,individual,1,0.46450209617614746
1,1.0,0.4739580765346507,0.38790909944590946,0.4117907008346856,0.42866942805144814,0.44510330952425853,0.4613714853870549,0.4791265992470422,0.4998709861304589,0.528426661440535,0.5726195461298408,1.1938489972517525,0.9890322580645161,0.4752344097358639,0.0,0.9886486486486487,50,566,1582,772019,no_split,wide,individual,1,0.46450209617614746
0,0.0,0.4393504421267419,0.3587806694525955,0.3793965646848939,0.39547679409052594,0.4095222288842371,0.42355303841657904,0.44019292103548446,0.4607643283473855,0.4882863308816342,0.5375756231124739,1.0349140371044716,0.976544502617801,0.4503453492187198,0.0,0.9611488250652741,50,566,1583,772019,no_split,wide,individual,1,0.46521449089050293
1,1.0,0.4612829911695936,0.37645247989785086,0.3981732481506453,0.41663572519303704,0.4317994957796231,0.4477373491081294,0.46628834285160725,0.48638679457732625,0.5161234222490605,0.5621745726858379,1.0321239496619665,0.9458333333333333,0.4503453492187198,0.0,0.9611488250652741,50,566,1583,772019,no_split,wide,individual,1,0.46521449089050293
0,0.0,0.575238276601051,0.4013034201111138,0.43716787027361326,0.46916427945698247,0.5009906853149765,0.535237202896687,0.5749332201405266,0.6222165290514694,0.6898056853786522,0.8048219756013041,1.5808255252476535,0.9700564971751412,0.5789240789598502,0.0,0.9675824175824176,50,566,1597,772019,no_split,wide,individual,1,0.46753621101379395
1,1.0,0.5824127795882326,0.4176162547594932,0.455176057365842,0.4849125053984412,0.513690659527167,0.5457445879318494,0.5841028099032272,0.6266268540056459,0.685454684550487,0.7884167279066548,1.5510040664769755,0.9652406417112299,0.5789240789598502,0.0,0.9675824175824176,50,566,1597,772019,no_split,wide,individual,1,0.46753621101379395
0,0.0,0.4053930524704307,0.33926337103195864,0.3574196178843017,0.3716604398306165,0.3850916406982359,0.3981700361934523,0.4122029540176939,0.4273897726278126,0.4475935227611931,0.4802960902626054,0.8396282958313934,0.9948421052631579,0.41740523901142107,0.0,0.9878627968337731,50,566,1601,772019,no_split,wide,individual,1,0.4658241271972656
1,1.0,0.42948098209495633,0.34936055883235556,0.3701481925424212,0.3867303252264919,0.4023109186038733,0.41726852098652983,0.43368588937914854,0.4536261507846689,0.48095162392369084,0.5250133581406112,1.009737626558043,0.9808465608465609,0.41740523901142107,0.0,0.9878627968337731,50,566,1601,772019,no_split,wide,individual,1,0.4658241271972656
0,0.0,0.47875375672535897,0.3453499794664504,0.37740229777468814,0.4016727355379708,0.42469392400624273,0.4490756263091655,0.47872860356366953,0.5134621139843292,0.5629648430813287,0.6451776389849571,1.5629672506411647,0.9845263157894737,0.49343631017586537,0.0,0.9766315789473684,50,566,1614,772019,no_split,wide,individual,1,0.4655027389526367
1,1.0,0.5081188636263718,0.3704259832956831,0.404615651110236,0.4303308131859129,0.45643606953877247,0.4821463206529427,0.513781673739066,0.5495026487476082,0.5961324906434331,0.6794999826873942,1.4897960782655926,0.9687368421052631,0.49343631017586537,0.0,0.9766315789473684,50,566,1614,772019,no_split,wide,individual,1,0.4655027389526367
0,0.0,0.42986502897115164,0.37513024705708437,0.3911088712768504,0.403270973498418,0.4134920226677082,0.4236371647680532,0.4347118923621582,0.4476130304904908,0.46405832995449553,0.4919401705874893,0.7706932465423756,0.9983157894736842,0.4355529228263266,0.0,0.9965879265091864,50,566,161753,772019,no_split,wide,individual,1,0.4664151668548584
1,1.0,0.4412110371325218,0.3847596730892234,0.4009538422213829,0.4132913255387,0.42412962898598044,0.4355067749558812,0.447508797975275,0.46080373775093086,0.4774065050433882,0.5038430231124899,0.7916089834776758,0.994869109947644,0.4355529228263266,0.0,0.9965879265091864,50,566,161753,772019,no_split,wide,individual,1,0.4664151668548584
0,0.0,0.4800559257837599,0.3728302382170521,0.39686659719069295,0.4176548957473102,0.4379148986732794,0.45851821054877984,0.48193797163119456,0.511561384407349,0.5515868989467865,0.6164166111631981,1.288315026577983,0.9832978723404255,0.4801800869204866,0.0,0.983377308707124,50,566,1638,772019,no_split,wide,individual,1,0.4640204906463623
1,1.0,0.4803022978822908,0.3860061281293187,0.4101090166757142,0.42992825839144316,0.4476091700071457,0.4651955872347847,0.4849211129697766,0.5082786086174123,0.5382690532410626,0.5889924026860093,1.2986818200991452,0.983455497382199,0.4801800869204866,0.0,0.983377308707124,50,566,1638,772019,no_split,wide,individual,1,0.4640204906463623
0,0.0,0.39555125455260054,0.32688759493553354,0.3461954658058568,0.3602563715400259,0.3724619556408075,0.38557395531331284,0.40042042980279885,0.4170553614725826,0.4381404126702179,0.47501026331255597,0.8340310362091677,0.9793684210526316,0.4052341619970885,0.0,0.9680738786279683,50,566,1657,772019,no_split,wide,individual,1,0.4666144847869873
1,1.0,0.41496830175609767,0.3397817494435473,0.3600915634112227,0.37550884610765667,0.38946298769848914,0.4039200257394078,0.41983627646606353,0.43828813602400973,0.46387206752907023,0.5032855344650328,0.859305555104524,0.9567195767195767,0.4052341619970885,0.0,0.9680738786279683,50,566,1657,772019,no_split,wide,individual,1,0.4666144847869873
0,0.0,0.46799622578463623,0.3754936673729727,0.39578853825748445,0.4123923074354672,0.4278779984520446,0.44582157421274043,0.46582301669986853,0.49123186737632996,0.5259033421514183,0.5868233714863267,1.1542410727244596,0.9931914893617021,0.47725845608505013,0.0,0.9894179894179894,50,566,1663,772019,no_split,wide,individual,1,0.46456241607666016
1,1.0,0.48642318922440697,0.392230245742487,0.41398479552877,0.43203596221239976,0.4502700948018822,0.4687751915109712,0.489162769674151,0.5143225005294721,0.5471135255263125,0.6023456791808282,1.288165947225269,0.9856842105263158,0.47725845608505013,0.0,0.9894179894179894,50,566,1663,772019,no_split,wide,individual,1,0.46456241607666016
0,0.0,0.519536265842741,0.4019846066100631,0.4311939177996019,0.45311426332788357,0.4735426165174981,0.4959909026217636,0.5201102111463036,0.5496884054719526,0.595344406570173,0.6697289120542156,1.372383050167083,0.9749462365591398,0.527264304020226,0.0,0.9682037533512065,50,566,1761,772019,no_split,wide,individual,1,0.4638357162475586
1,1.0,0.5349510157903445,0.4169688510205403,0.44741186083794265,0.47139750150327414,0.4930146087906399,0.5151755152016848,0.540833568485607,0.5679929492651696,0.608418482012149,0.6746338171105515,1.4539135753662182,0.9614973262032086,0.527264304020226,0.0,0.9682037533512065,50,566,1761,772019,no_split,wide,individual,1,0.4638357162475586
0,0.0,0.4516944168723544,0.3452337164780198,0.37220579959422145,0.3930223128184334,0.4130068081871859,0.4334181276321287,0.4552275314539908,0.4826548143982074,0.5172332592179069,0.5809075877953246,1.2309305212172634,0.951413612565445,0.45513117319842405,0.0,0.943979057591623,50,566,1768,772019,no_split,wide,individual,1,0.46651530265808105
1,1.0,0.45856792952449366,0.35860117297493305,0.3857255575060898,0.40686959589589033,0.42506416752534937,0.4446262359413695,0.46667783780992644,0.4898873491271435,0.5212783563371131,0.5731533677854227,1.1287888175226033,0.9365445026178011,0.45513117319842405,0.0,0.943979057591623,50,566,1768,772019,no_split,wide,individual,1,0.46651530265808105
0,0.0,0.37350993721971626,0.2969014638913042,0.31825230085850953,0.3349895105912052,0.3490840606144467,0.36332234976099165,0.3789716144749093,0.3967714083696505,0.42024733339972964,0.46103303935682216,0.8017772307019113,0.963404255319149,0.37810672451494676,0.0,0.9507978723404256,50,566,1813,772019,no_split,wide,individual,1,0.46564149856567383
1,1.0,0.3827035118101772,0.30778743491475746,0.3298063304433021,0.3462267645499687,0.3609083245115738,0.3752103645106176,0.39064998017640634,0.4083588871034333,0.4309874027132842,0.46569994157586964,1.0689704262448283,0.9381914893617022,0.37810672451494676,0.0,0.9507978723404256,50,566,1813,772019,no_split,wide,individual,1,0.46564149856567383
0,0.0,0.3933517144309109,0.31369730995808537,0.3341836802121912,0.349451631224169,0.3641687659047825,0.37903245957028847,0.39541675390297104,0.4167331743622248,0.44218114010933257,0.4905926490101901,1.0542237990653516,0.9834736842105263,0.3962375787585329,0.0,0.9821522309711286,50,566,1821,772019,no_split,wide,individual,1,0.4682033061981201
1,1.0,0.3991083338488375,0.32132958202144096,0.34122800409778914,0.35585847539252685,0.3708122503917932,0.38550043361851577,0.4029252487817675,0.4218090882414515,0.4475857719510428,0.4925533422566051,0.9428682177407132,0.9808376963350786,0.3962375787585329,0.0,0.9821522309711286,50,566,1821,772019,no_split,wide,individual,1,0.4682033061981201
0,0.0,0.44382243884662226,0.3535578829630178,0.375901614760769,0.3927865686646981,0.4082040575906158,0.42510337286472355,0.4450329366505817,0.4693095557429939,0.5019428741447859,0.55588476487115,1.1936293749630262,0.9887958115183246,0.448085403244815,0.0,0.9872872340425531,50,566,275,772019,no_split,wide,individual,1,0.4704577922821045
1,1.0,0.452486625947814,0.36103965080354145,0.3833510109395974,0.4001531402543418,0.417322654281388,0.43448832622670097,0.4540113947976931,0.47739267076863506,0.5111145701531709,0.5677605060213636,1.0277165455952368,0.9857297297297297,0.448085403244815,0.0,0.9872872340425531,50,566,275,772019,no_split,wide,individual,1,0.4704577922821045
0,0.0,0.37814118372436073,0.30549343753988634,0.3213705473869206,0.33421898764063085,0.3477562810995096,0.3614165609246498,0.3773581524914463,0.3973477964466522,0.42411851125232447,0.4725005632904297,1.0459134331075937,0.9870212765957447,0.3849600263971824,0.0,0.9808488063660478,50,566,3286,772019,no_split,wide,individual,1,0.47584009170532227
1,1.0,0.3917427905373438,0.316529262972852,0.3347713834244124,0.3486301829445105,0.36244813403287235,0.3771832480125281,0.3936624929098155,0.4128719123525904,0.4396251282370342,0.48580614079972495,1.04116311101374,0.9747089947089947,0.3849600263971824,0.0,0.9808488063660478,50,566,3286,772019,no_split,wide,individual,1,0.47584009170532227
0,0.0,0.45577298175670894,0.36199026714752613,0.3854743552526973,0.403241948295451,0.4213102211802105,0.43826215192590917,0.4575867609827657,0.48130297635941455,0.5149178600987405,0.5735370600741163,1.0126750927930974,0.9883597883597883,0.46564329124789505,0.0,0.9832717678100263,50,566,3292,772019,no_split,wide,individual,1,0.5091860294342041
1,1.0,0.4754616517417592,0.3756449382312281,0.40124376763570446,0.421642972249952,0.4401434798453165,0.4589253701558771,0.4811284376593779,0.5064791272555279,0.5406989317115519,0.5938321472659402,1.0942251719041685,0.9782105263157894,0.46564329124789505,0.0,0.9832717678100263,50,566,3292,772019,no_split,wide,individual,1,0.5091860294342041
0,0.0,0.44997445995333,0.36921310661623613,0.3919546434241192,0.4085059942537283,0.42398701000515077,0.4396429673299518,0.45593931248478814,0.47491087903372503,0.5007824201447197,0.5437188542679484,0.9940384181030943,0.994421052631579,0.45590516702876943,0.0,0.9921784776902887,50,566,337788,772019,no_split,wide,individual,1,0.49376606941223145
1,1.0,0.4618048232818243,0.3780781663859601,0.4020576296279327,0.4201642210845343,0.4365508786653118,0.4520079611634127,0.4683562038988924,0.48940580925457594,0.5148163904216715,0.5560907900213037,1.0122188291710492,0.9899476439790575,0.45590516702876943,0.0,0.9921784776902887,50,566,337788,772019,no_split,wide,individual,1,0.49376606941223145
0,0.0,0.4050593031128167,0.32483934160196903,0.342573136954377,0.35744163483015107,0.37064784701068676,0.38602786036110714,0.40252422811884914,0.4233369742587001,0.45212135606073095,0.5070642663484612,1.220888591642991,0.986096256684492,0.4201794645813804,0.0,0.9712365591397849,50,566,3487,772019,no_split,wide,individual,1,0.48393917083740234
1,1.0,0.4354630872550096,0.341747572097602,0.3644894578068037,0.3822659287066783,0.39921474162442677,0.41724035192985115,0.43755394439559364,0.4623464385534087,0.4967858266835221,0.550603485888652,1.0581856025036953,0.9562162162162162,0.4201794645813804,0.0,0.9712365591397849,50,566,3487,772019,no_split,wide,individual,1,0.48393917083740234
0,0.0,0.4100625801454278,0.34579764886738373,0.3642601706742555,0.3776432005340841,0.3907343228128259,0.4027306796913989,0.4160659821457652,0.43091334453976443,0.4489030307368185,0.48272761846125173,0.9196879814881306,0.9872251308900524,0.41545837645965866,0.0,0.9822751322751323,50,566,3580,772019,no_split,wide,individual,1,0.5052285194396973
1,1.0,0.4209695908768678,0.3582504841613392,0.37642244465829217,0.39051753003874307,0.4025752581151208,0.4151988591787019,0.4280123774820881,0.44285240704536777,0.46194945114337516,0.49144589120562365,0.781944712431742,0.9772192513368984,0.41545837645965866,0.0,0.9822751322751323,50,566,3580,772019,no_split,wide,individual,1,0.5052285194396973
0,0.0,0.47473302231714626,0.37283865813857925,0.39737112965939286,0.41697884202171615,0.4360456299830193,0.45461488228293956,0.4758344956886504,0.5017720847096588,0.5383344703374937,0.6040000356502194,1.4541187149189452,0.9548351648351648,0.4846122693457838,0.0,0.9358011049723757,50,566,3625,772019,no_split,wide,individual,1,0.5046555995941162
1,1.0,0.49460128578585044,0.3907102401161378,0.4182251497936919,0.43878680469923265,0.4576155216173399,0.47690851867294554,0.4982981950432354,0.5265315235466074,0.5598477706354564,0.6177903008643653,1.3087588972583617,0.9165555555555556,0.4846122693457838,0.0,0.9358011049723757,50,566,3625,772019,no_split,wide,individual,1,0.5046555995941162
0,0.0,0.5503044841496504,0.43721881339513174,0.46731456709607705,0.49052280273482046,0.5127799575342868,0.5339423766242226,0.5580230489842917,0.5857010900063512,0.621173578540988,0.6853356871008618,1.3104585734348329,0.9966492146596858,0.5564397990678162,0.0,0.99501312335958,50,566,3754,772019,no_split,wide,individual,1,0.49549102783203125
1,1.0,0.5626074051171303,0.4525365315093375,0.4826799679925314,0.5062895154367216,0.527245145492193,0.5485922361441724,0.570923910204996,0.5990270299778307,0.6336339503860516,0.6910203906664419,1.5030046764353118,0.9933684210526316,0.5564397990678162,0.0,0.99501312335958,50,566,3754,772019,no_split,wide,individual,1,0.49549102783203125
0,0.0,0.4154518562252238,0.33809311039080875,0.3584521910672071,0.37385948208768666,0.3877805544494661,0.4022113647272875,0.417874859317935,0.43656232505032966,0.46323113164747937,0.5100861218760568,0.993270892423261,0.9737566137566137,0.4202947894941222,0.0,0.9672823218997362,50,566,3910,772019,no_split,wide,individual,1,0.4970734119415283
1,1.0,0.4251122336405527,0.3461313450240336,0.36585072047887024,0.382016097768639,0.3968079707302308,0.4123209700116038,0.4304691769869944,0.45055102085279713,0.4763320656385347,0.5193506870081351,1.0116099869559514,0.9608421052631579,0.4202947894941222,0.0,0.9672823218997362,50,566,3910,772019,no_split,wide,individual,1,0.4970734119415283
0,0.0,0.41301605952696213,0.34211308763232917,0.35842111884134675,0.37211049156407167,0.38529675672050284,0.3988058048468702,0.41396863770208325,0.4336210883389035,0.4597635108654759,0.5028203963828013,0.9298201157749857,0.9783157894736842,0.41117732709247923,0.0,0.9794195250659631,50,566,4222,772019,no_split,wide,individual,1,0.49803900718688965
1,1.0,0.40932886591495676,0.3496684670881207,0.36727845976729856,0.37956680322026465,0.39089051685698645,0.4017621009141614,0.4138783149432574,0.427719329632507,0.4459371014150693,0.4760341232940959,0.955466902567835,0.9805291005291006,0.41117732709247923,0.0,0.9794195250659631,50,566,4222,772019,no_split,wide,individual,1,0.49803900718688965
0,0.0,0.4608530179526777,0.3438526658544857,0.37267877465367405,0.3945644978602315,0.4140417553904418,0.43463240449949225,0.45904085789608623,0.4917547032888362,0.5357180670371012,0.6130739691497482,1.349175620639518,0.9546031746031746,0.46941406833306054,0.0,0.9360846560846561,50,566,4264,772019,no_split,wide,individual,1,0.5018486976623535
1,1.0,0.4779751187134433,0.36926305018757954,0.3976495387152432,0.41919660050508223,0.4395835749562913,0.4602587866274098,0.48265590913915285,0.5095573881588508,0.5467020790692417,0.6072472991634615,1.4200404745568023,0.9175661375661376,0.46941406833306054,0.0,0.9360846560846561,50,566,4264,772019,no_split,wide,individual,1,0.5018486976623535
0,0.0,0.4353144826698422,0.3722705704363044,0.3883738915186522,0.40138863883968534,0.4131525121320824,0.425056925328049,0.4377490377737188,0.4537345502408677,0.4743150060483908,0.5104114107918979,0.8987680911247123,0.9902127659574468,0.4377220452606737,0.0,0.9885333333333334,50,566,5281,772019,no_split,wide,individual,1,0.49562859535217285
1,1.0,0.4401424825177663,0.3802773209851002,0.3969195719261833,0.4096138308223547,0.4207849005050811,0.4323832864051731,0.44447511414296065,0.4594269206265379,0.4777646111176309,0.5094233675737165,0.8907448476093629,0.9868449197860962,0.4377220452606737,0.0,0.9885333333333334,50,566,5281,772019,no_split,wide,individual,1,0.49562859535217285
0,0.0,0.4626904143418903,0.3745263596500645,0.3947454175216515,0.4112208192409876,0.42679381082550444,0.4430640356091249,0.46225318563148243,0.4857072043816419,0.5192699734689684,0.5789674862976454,1.1903377038905225,0.9985185185185185,0.4716592214234413,0.0,0.9963733333333333,50,566,5332,772019,no_split,wide,individual,1,0.49585652351379395
1,1.0,0.48077268668372686,0.3873338797577093,0.4086102446691308,0.4268969048103488,0.44438967731908885,0.4625793118206051,0.4834137078892358,0.5084336008536149,0.5412538268341994,0.5986564348949164,1.1230015494878895,0.9941935483870967,0.4716592214234413,0.0,0.9963733333333333,50,566,5332,772019,no_split,wide,individual,1,0.49585652351379395
0,0.0,0.44279302395485254,0.3610641067780768,0.3805532282655936,0.3969903218069706,0.41185775758604304,0.4269913367306292,0.4433594431021295,0.4648254601304096,0.4936838624567486,0.5453507818125811,1.0530378378750123,0.9801052631578947,0.45528424165428916,0.0,0.9623746701846966,50,566,5575,772019,no_split,wide,individual,1,0.4999871253967285
1,1.0,0.46784155045266457,0.3783704279452321,0.40128268468768197,0.41983277168182154,0.4367218694114641,0.4535105555492498,0.4728961297426171,0.4957821382385947,0.5250085087237185,0.573984829226602,1.2062897534578652,0.9445502645502646,0.45528424165428916,0.0,0.9623746701846966,50,566,5575,772019,no_split,wide,individual,1,0.4999871253967285
0,0.0,0.4547684171553022,0.36081854310606537,0.38259455151036525,0.40040641744249594,0.41694961928983726,0.4346661394264971,0.45564473237245284,0.4814712774658157,0.514744389369856,0.5743832553702105,1.0960078400454492,0.9563934426229508,0.455714432160772,0.0,0.9562803234501348,50,566,5731,772019,no_split,wide,individual,1,0.49408721923828125
1,1.0,0.45663528719269214,0.3718735646350388,0.39398745135355207,0.4106111260489731,0.42578927533749555,0.44192755809019435,0.45941980362222157,0.4806685787337018,0.509292365516687,0.559003841781556,1.0361758495175086,0.9561702127659575,0.455714432160772,0.0,0.9562803234501348,50,566,5731,772019,no_split,wide,individual,1,0.49408721923828125
0,0.0,0.4319894769595641,0.35081870085880945,0.3736519358721071,0.3914072377281881,0.4066679479217152,0.42257146782722027,0.4385348748828767,0.45794592965011044,0.48354148853543144,0.5229836736426675,1.0483329609863907,0.9922340425531915,0.440709082069696,0.0,0.9830238726790451,50,566,5761,772019,no_split,wide,individual,1,0.4945218563079834
1,1.0,0.44938255170305474,0.37093591934797016,0.3944732020280781,0.4118634604614451,0.4279266624233219,0.4435819888438183,0.4589969349427603,0.4770950908065565,0.49886994385076944,0.5351850200119923,1.0309669066751048,0.9738624338624339,0.440709082069696,0.0,0.9830238726790451,50,566,5761,772019,no_split,wide,individual,1,0.4945218563079834
0,0.0,0.42762057167241846,0.32802365253077836,0.3529667743064333,0.3727552557760532,0.39071495900327075,0.40985469409733394,0.4324112438987392,0.4578129582755076,0.4912164486597233,0.5472723830140479,1.172592878596364,0.9141156462585034,0.42874266225671914,384.0,0.9108205782312925,50,566,5803,772019,no_split,wide,individual,1,0.5019288063049316
1,1.0,0.4298647528410198,0.3344656879923524,0.360240985852521,0.3804209340265069,0.39767823719805995,0.41608841960106213,0.4354663274725939,0.4586394870883806,0.48969311487376815,0.5406844539247986,1.4004805721708669,0.9075255102040817,0.42874266225671914,384.0,0.9108205782312925,50,566,5803,772019,no_split,wide,individual,1,0.5019288063049316
0,0.0,0.5031843897929096,0.38801427638410885,0.41694710837888177,0.44023341636960817,0.46086999083455854,0.4829488400062112,0.5058864237228407,0.5362401109663855,0.5772866887091245,0.6453716765933425,1.338767869753115,0.9697916666666667,0.5127624989612091,0.0,0.9575916230366492,50,566,5815,772019,no_split,wide,individual,1,0.4669680595397949
1,1.0,0.5224414303312802,0.4065060609566613,0.43642194402522866,0.46060090491026195,0.48285294398253564,0.5049539199347026,0.528613046576287,0.5571470522851777,0.5936017199743037,0.6577858098243039,1.1902884729052305,0.9452631578947368,0.5127624989612091,0.0,0.9575916230366492,50,566,5815,772019,no_split,wide,individual,1,0.4669680595397949
0,0.0,0.4154269420629371,0.3526258629096288,0.36746961434984127,0.3800052673566633,0.39189131928977067,0.40358881894067544,0.4166816864914478,0.4333201710121986,0.45525267893500154,0.49130764890823664,1.0362936403446033,0.9973684210526316,0.4257111144168736,0.0,0.994021164021164,50,566,6055,772019,no_split,wide,individual,1,0.4659245014190674
1,1.0,0.43610469285968184,0.3646355045255434,0.3812749164378113,0.39517507002543956,0.4087473362880076,0.42299713900966396,0.43827034947639476,0.4576490273040097,0.48263127473054307,0.5245004928383468,1.1372711505471944,0.9906382978723405,0.4257111144168736,0.0,0.994021164021164,50,566,6055,772019,no_split,wide,individual,1,0.4659245014190674
0,0.0,0.4698141298724907,0.3550216173741707,0.3810316032340337,0.4028888847895386,0.42302368749409713,0.44401965578339264,0.46926572503250696,0.4997411824640105,0.5433906107494885,0.6225918372824006,1.2861936218168486,0.9658378378378378,0.47174466622921096,0.0,0.9647184986595174,50,566,6109,772019,no_split,wide,individual,1,0.4644331932067871
1,1.0,0.47364439615470694,0.3680738676721116,0.39629577938227245,0.41599134642949753,0.4362367100862166,0.45563938934722387,0.477613529366198,0.5039753686381963,0.538631416757542,0.5992525254694964,1.1764621261978037,0.9636170212765958,0.47174466622921096,0.0,0.9647184986595174,50,566,6109,772019,no_split,wide,individual,1,0.4644331932067871
0,0.0,0.3862251504187361,0.3269682385026969,0.3432192737750961,0.3548800653770666,0.36563294160652554,0.3766341028613006,0.38826986071567743,0.4032305708602862,0.42203786806892407,0.45585943084874725,0.8439822687902511,0.9930890052356021,0.40014724716799144,0.0,0.9765013054830287,50,566,6214,772019,no_split,wide,individual,1,0.46439409255981445
1,1.0,0.41399683299667767,0.33878696929459684,0.3563421462748019,0.37127716915418874,0.3854214040869072,0.4001545196443098,0.4177064608202524,0.43782883310462073,0.46455050430262,0.50707534217525,0.9384552819868986,0.96,0.40014724716799144,0.0,0.9765013054830287,50,566,6214,772019,no_split,wide,individual,1,0.46439409255981445
0,0.0,0.46677386505177554,0.3587391628660966,0.3905024413781674,0.4152613884659083,0.4344401875351629,0.4546740026486485,0.4777338348975643,0.5017175725697319,0.5361267916130136,0.5859348360546648,1.0183872045134783,0.9481481481481482,0.4618984705738879,0.0,0.9551322751322752,50,566,6253,772019,no_split,wide,individual,1,0.46546506881713867
1,1.0,0.4570230760960001,0.3672130085196014,0.3967439576807107,0.41708676814728224,0.4347337001122338,0.45204144376294486,0.4697528110625981,0.49043724469599326,0.5152841307389086,0.5500776752881592,1.002408464235744,0.9621164021164021,0.4618984705738879,0.0,0.9551322751322752,50,566,6253,772019,no_split,wide,individual,1,0.46546506881713867
0,0.0,0.45638075160426866,0.37092749660648455,0.39510650832826216,0.413486272639461,0.4297326930109285,0.4475192224781536,0.463486287940105,0.48323951298638995,0.5099013235086629,0.553427810723399,0.917047836046262,0.9881052631578947,0.4597455137820147,0.0,0.9853543307086614,50,566,6262,772019,no_split,wide,individual,1,0.4654860496520996
1,1.0,0.46309265940385647,0.3801202396828176,0.4059618331694794,0.4242046280857953,0.44036557256991876,0.45547049393709593,0.4717869402903113,0.49062237844186124,0.5145432804908096,0.5519681462738466,1.0290528387324611,0.9826178010471204,0.4597455137820147,0.0,0.9853543307086614,50,566,6262,772019,no_split,wide,individual,1,0.4654860496520996
0,0.0,0.5023822430358914,0.4014235778780046,0.42434076221070255,0.4434244115839987,0.4610634672350806,0.48172601474890275,0.5044533676600679,0.531901531561866,0.5687787120032052,0.632174662285534,1.231353131184042,0.9970526315789474,0.5100122697903189,0.0,0.9952631578947368,50,566,6361,772019,no_split,wide,individual,1,0.467958927154541
1,1.0,0.5176422965447465,0.4267738634257791,0.4501611209736151,0.468442587904884,0.4862302175988264,0.5036478414284322,0.5218873703311985,0.5444284052634133,0.5752494635104046,0.6265696913364531,1.1864166600715398,0.9934736842105263,0.5100122697903189,0.0,0.9952631578947368,50,566,6361,772019,no_split,wide,individual,1,0.467958927154541
0,0.0,0.4144332659913053,0.3433394257679426,0.36248185094436486,0.37754678006741454,0.3912239630012191,0.404440011623006,0.4193446168778522,0.4373439992093994,0.45947310710124156,0.49772632546295764,0.808858221672993,0.9888421052631579,0.41683519687891535,0.0,0.9872295514511873,50,566,6427,772019,no_split,wide,individual,1,0.46872782707214355
1,1.0,0.4192498363955603,0.35244432720139135,0.37334294347948244,0.3874813199409865,0.4003810327349623,0.41329320175660667,0.42689155784182287,0.4418042966483637,0.46131399953854835,0.49125300317432746,0.8687413531926363,0.9856084656084656,0.41683519687891535,0.0,0.9872295514511873,50,566,6427,772019,no_split,wide,individual,1,0.46872782707214355
0,0.0,0.4567626248274626,0.37810183740155257,0.3995587658416401,0.4154831807971603,0.4300463361326702,0.44487894775426456,0.4618480882562549,0.4814051595106892,0.507017752098341,0.5492271954079512,0.9489325090862164,0.9831914893617021,0.46278630838106755,0.0,0.9738666666666667,50,566,6583,772019,no_split,wide,individual,1,0.4689316749572754
1,1.0,0.4688422041461892,0.38826560805917254,0.4101585024302186,0.42835656048135723,0.44441122696223706,0.45967854660417595,0.4757609831549614,0.49581699795253575,0.5203445089578969,0.5612544921608523,0.9565723305037305,0.9644919786096257,0.46278630838106755,0.0,0.9738666666666667,50,566,6583,772019,no_split,wide,individual,1,0.4689316749572754
0,0.0,0.4427867530554324,0.35862100247189393,0.3815669366418594,0.399984913618965,0.41615936155233285,0.4320336381539673,0.4488015086988408,0.4689195388514346,0.4953256917119639,0.5388975660073783,1.1005903299658948,0.9744973544973545,0.4525430414350915,0.0,0.96,50,566,6634,772019,no_split,wide,individual,1,0.4699983596801758
1,1.0,0.46251027659052696,0.3708131170306074,0.39568324529063065,0.41484857449047735,0.4315299351031849,0.44962643963453136,0.4681010509925679,0.4904913776354798,0.5215016527164577,0.5727009303747419,1.090142358402494,0.9451891891891891,0.4525430414350915,0.0,0.96,50,566,6634,772019,no_split,wide,individual,1,0.4699983596801758
0,0.0,0.4614900890895075,0.3775292848158735,0.3997638947447253,0.41657422315774084,0.4322616166919665,0.4480724539780649,0.465734022560832,0.4867511992708553,0.515525418013481,0.5632951206096009,1.0086552551324222,0.981875,0.4619609825372921,0.0,0.9826631853785901,50,566,6844,772019,no_split,wide,individual,1,0.46925830841064453
1,1.0,0.46243434139579825,0.39238087975618147,0.4134287465450433,0.4286627348081085,0.44239907398719214,0.456134421910375,0.47059585523099273,0.4867685338551872,0.5071580768125936,0.5393690259430813,0.8909881098639291,0.983455497382199,0.4619609825372921,0.0,0.9826631853785901,50,566,6844,772019,no_split,wide,individual,1,0.46925830841064453
0,0.0,0.4441525951602422,0.3478806298302347,0.3725705216386699,0.3913519953498184,0.408900126657617,0.42742929733524526,0.4459314551970532,0.47206275527756375,0.5040456219292637,0.5620314222196109,1.303504788832619,0.984,0.4624636813630336,0.0,0.9615706806282722,50,566,7624,772019,no_split,wide,individual,1,0.4709932804107666
1,1.0,0.480584027084546,0.3799953268776105,0.4070780836675224,0.43009269017010254,0.44966603053309884,0.4679127857891492,0.48822658000476427,0.5126608170189677,0.5452822762553506,0.5940734437905613,1.1086679807288187,0.939375,0.4624636813630336,0.0,0.9615706806282722,50,566,7624,772019,no_split,wide,individual,1,0.4709932804107666
0,0.0,0.4130357133745422,0.3357575442110444,0.3562477271278246,0.37112923555871724,0.38525281964119984,0.3998976471939164,0.4160775148009815,0.435693879736259,0.4620081469356444,0.5059970597859111,1.113311109662298,0.9689625850340136,0.41680765912842543,382.0,0.9605192862485308,50,566,7756,772019,no_split,wide,individual,1,0.47394323348999023
1,1.0,0.4206193095744548,0.34674481650903505,0.3668408152755613,0.38195213209916806,0.3951631547274381,0.40935232792768367,0.4252411712895451,0.4432309739469869,0.4685617663769412,0.5088163780959545,0.9404155452555494,0.9519871106337272,0.41680765912842543,382.0,0.9605192862485308,50,566,7756,772019,no_split,wide,individual,1,0.47394323348999023
0,0.0,0.428706067997734,0.33394215164999014,0.3585014945464218,0.3786081755741661,0.3962058421054188,0.41338171614880637,0.4329175315105118,0.4562889301155649,0.48921094201099663,0.5394662360866969,1.0454050288186953,0.9725531914893617,0.4346300660203456,0.0,0.9615013404825737,50,566,7768,772019,no_split,wide,individual,1,0.5045590400695801
1,1.0,0.44065012887575633,0.3492150396724452,0.37522315338930384,0.3947193015836083,0.41337147302414795,0.4308429623938846,0.44973938217063264,0.4717181651282985,0.4973821211674185,0.5424304500060684,1.0921237692939372,0.9502702702702702,0.4346300660203456,0.0,0.9615013404825737,50,566,7768,772019,no_split,wide,individual,1,0.5045590400695801
0,0.0,0.4134205261050517,0.3158221219533065,0.34105743082678885,0.3589147904505454,0.376833603452898,0.3954303225001944,0.41537425104753894,0.4392740825651631,0.47424426734986774,0.5336800167150565,1.0635951498789076,0.9412565445026178,0.4134380720120659,0.0,0.9401570680628272,50,566,7807,772019,no_split,wide,individual,1,0.5018959045410156
1,1.0,0.41345561791908014,0.32987265090143486,0.3529805313781599,0.3706059764155913,0.3879512533974522,0.40332970705159654,0.4206382784957538,0.43954772699894323,0.4651660692061208,0.5062492408826734,0.9195185015463657,0.9390575916230367,0.4134380720120659,0.0,0.9401570680628272,50,566,7807,772019,no_split,wide,individual,1,0.5018959045410156
0,0.0,0.39711383158626756,0.3205821366215375,0.33726047539205073,0.3504006025659689,0.36384019286473085,0.37773960210023916,0.3951359646639399,0.41693186692666473,0.4475614674332465,0.4979022163243644,1.0201849672752878,0.9780208333333333,0.40313111524985223,0.0,0.9714435695538057,50,566,7813,772019,no_split,wide,individual,1,0.5072941780090332
1,1.0,0.40924391135254146,0.33214370462400616,0.35025564337973125,0.36492175679865313,0.37956474210464003,0.393974228770368,0.4097369301145013,0.4307657823714393,0.4582904196835899,0.5054955098468817,1.0390727634327923,0.9647619047619047,0.40313111524985223,0.0,0.9714435695538057,50,566,7813,772019,no_split,wide,individual,1,0.5072941780090332
0,0.0,0.41138771756209996,0.3488483524197332,0.3677437709433383,0.3811528418189241,0.39345541797718836,0.40576715961542464,0.41841083789539146,0.43252018794369207,0.450175744085374,0.4802515006117817,0.8530350272214441,0.9931616625707875,0.4170455724015993,382.0,0.989208248744524,50,566,7828,772019,no_split,wide,individual,1,0.511035680770874
1,1.0,0.4227034272410987,0.3574144888138078,0.3767581539186598,0.3912931775233833,0.4043656381280728,0.4167008466813513,0.4297345891428277,0.44433332901929834,0.4634210579875695,0.49540346059191076,0.8024462006911858,0.9852548349182605,0.4170455724015993,382.0,0.989208248744524,50,566,7828,772019,no_split,wide,individual,1,0.511035680770874
0,0.0,0.5552003302402708,0.3995398858862314,0.42941708104789844,0.4561227996261552,0.4826096877942671,0.5120033078599713,0.5482765747715904,0.5952705540685996,0.6632169947916793,0.7739322626201509,1.555098190004616,0.9788359788359788,0.5664916795368217,0.0,0.9744680851063829,50,566,7840,772019,no_split,wide,individual,1,0.46367669105529785
1,1.0,0.5779037919274534,0.4253481659981246,0.4581780188484761,0.48623732651639584,0.5140087551689532,0.5424961385561893,0.5757517505961847,0.6200469861932283,0.6779672767952661,0.7743443826319859,1.588322826819653,0.9700534759358289,0.5664916795368217,0.0,0.9744680851063829,50,566,7840,772019,no_split,wide,individual,1,0.46367669105529785
0,0.0,0.4660477971476196,0.37464018958937073,0.3983883005046405,0.41688076078036135,0.4346186577440924,0.4521192404848683,0.47297975390726976,0.4971773165781677,0.5266108100413,0.5745068173367186,1.0644949850498036,1.0,0.4678376133092972,0.0,0.9998429319371728,50,566,7924,772019,no_split,wide,individual,1,0.462263822555542
1,1.0,0.4696274294709748,0.3934997190225702,0.4140066848772144,0.4300795481292796,0.44494837481114674,0.4598411403850996,0.47594400593195885,0.4945087065719325,0.5185321964605133,0.5574413606456774,0.9230983856553505,0.9996858638743455,0.4678376133092972,0.0,0.9998429319371728,50,566,7924,772019,no_split,wide,individual,1,0.462263822555542
0,0.0,0.44852200095221356,0.3711932667478624,0.3907637784344487,0.4073723383622609,0.42235993321544235,0.43699573108174716,0.45365395056281405,0.4733656723473532,0.4976332015655587,0.5371671581428589,1.077815704618951,0.9962962962962963,0.45854955592375185,0.0,0.9920424403183024,50,566,7939,772019,no_split,wide,individual,1,0.4645364284515381
1,1.0,0.46863044895364947,0.3844580332791415,0.4063974656024519,0.42403541037258635,0.44046164959565565,0.45747923709263727,0.47473385202265705,0.4963066412806423,0.5234955839142285,0.5668333883053632,1.0495208682125796,0.9877659574468085,0.45854955592375185,0.0,0.9920424403183024,50,566,7939,772019,no_split,wide,individual,1,0.4645364284515381
0,0.0,0.46292729708834535,0.3523685792478428,0.3788176017847746,0.4002479086336691,0.42011741919221324,0.4403648453132193,0.4630056369454215,0.4931964372072583,0.5348665975977782,0.6052733858848703,1.2362831963165415,0.9506741573033708,0.46738157389631063,0.0,0.9374104683195592,50,566,8026,772019,no_split,wide,individual,1,0.46253490447998047
1,1.0,0.47166731050073124,0.3679550161519983,0.3969138856487043,0.41791763816447314,0.43803453232547784,0.45679146330093134,0.4771628462908197,0.5025498520924835,0.5348031770863576,0.5906637302446969,1.3417694694571447,0.9246486486486486,0.46738157389631063,0.0,0.9374104683195592,50,566,8026,772019,no_split,wide,individual,1,0.46253490447998047
0,0.0,0.4808744650825242,0.37366120212796683,0.397725114890047,0.41757304445142535,0.43637666051657326,0.4582035870260963,0.4833283517293171,0.5120654478683676,0.5512774428083077,0.6169768084907975,1.4400198661690133,0.9821697099892589,0.48041472687323694,380.0,0.9823845327604727,50,566,808,772019,no_split,wide,individual,1,0.46367359161376953
1,1.0,0.4799549886639497,0.38359279509978267,0.40720897414991686,0.4271004539210337,0.4441477726898005,0.46273616314059807,0.4833674829160482,0.5069399845250518,0.5420300919217118,0.5960809984541534,1.261257956316869,0.9825993555316863,0.48041472687323694,380.0,0.9823845327604727,50,566,808,772019,no_split,wide,individual,1,0.46367359161376953
0,0.0,0.43482021756555345,0.33957355956687535,0.36476484021723904,0.3831160123624713,0.40067061280005073,0.41854829518386527,0.4385947318481041,0.46132046602450905,0.4941873291963574,0.547328370702177,1.2318342459111336,0.9564397905759162,0.45106230883867227,0.0,0.9146736292428198,50,566,8311,772019,no_split,wide,individual,1,0.4963376522064209
1,1.0,0.4672198058864105,0.3542083303378586,0.3813533383078192,0.4032971508105817,0.42507192013666206,0.44761210368268556,0.47358224831827755,0.503304221003865,0.5435831498827408,0.6065394108425419,1.0949826309926918,0.873125,0.45106230883867227,0.0,0.9146736292428198,50,566,8311,772019,no_split,wide,individual,1,0.4963376522064209
0,0.0,0.46078375996654697,0.37647695354336835,0.396775302592095,0.4134319545486518,0.4291669205108984,0.44434770945929103,0.4620656939659615,0.48350640325206196,0.5137255331703092,0.564460642550646,1.0445816768724479,0.9710416666666667,0.4652850110165628,0.0,0.9643386243386244,50,566,833,772019,no_split,wide,individual,1,0.49965715408325195
1,1.0,0.46993146371335315,0.38722424103372766,0.4086448062663828,0.4251124213367582,0.44038805762545935,0.45640503992529513,0.4736222220649317,0.494922619368576,0.5213381912720255,0.5669006985223797,1.0638545100965802,0.9574193548387097,0.4652850110165628,0.0,0.9643386243386244,50,566,833,772019,no_split,wide,individual,1,0.49965715408325195
0,0.0,0.5636622157210651,0.385614696091587,0.42131500761360646,0.4532332069389928,0.48356234555018096,0.5176508480227264,0.558685013332537,0.6102954829776492,0.6883598735374458,0.8059055232421809,1.5616303297562089,0.9259782608695653,0.5722462479843788,0.0,0.9165405405405406,50,566,837,772019,no_split,wide,individual,1,0.49936509132385254
1,1.0,0.5807379788255064,0.41036746268354773,0.4475508584853297,0.4786073025109856,0.5089414040068858,0.5413811988472584,0.5796870566268101,0.6250167958179853,0.688538668424724,0.8059484847022746,1.563160301289488,0.9072043010752688,0.5722462479843788,0.0,0.9165405405405406,50,566,837,772019,no_split,wide,individual,1,0.49936509132385254
0,0.0,0.39072861241134915,0.32082896274632516,0.34041543823562365,0.3554701342210684,0.36881026655401544,0.38237893585664817,0.3962840090659422,0.4121650246005667,0.43339613011931655,0.47182296138529795,0.7638181921007695,0.9877486910994765,0.3981903534891446,0.0,0.9777894736842105,50,566,8446,772019,no_split,wide,individual,1,0.502133846282959
1,1.0,0.4057310547899854,0.336250689831043,0.35629288658292424,0.3718410092181672,0.38608363520113975,0.3994276018459645,0.4134413597706728,0.4299429614276601,0.44959752941149167,0.4817385675871287,0.9199797429262173,0.9677248677248678,0.3981903534891446,0.0,0.9777894736842105,50,566,8446,772019,no_split,wide,individual,1,0.502133846282959
0,0.0,0.41827768670882254,0.3423608158553038,0.3629990879718237,0.37869555523982706,0.39299781280830787,0.407037644337672,0.4223218471637968,0.4405368531253256,0.4643362702640295,0.505671349680501,0.9455189758733255,0.9813756613756613,0.43018617890142,0.0,0.9632446808510639,50,566,845,772019,no_split,wide,individual,1,0.5011537075042725
1,1.0,0.4422220346468795,0.3527648654224464,0.37539520057426945,0.3946848556556,0.4111480609957861,0.42729962442808056,0.4468500496591719,0.4694353409553638,0.5006076319752328,0.5523992707983768,0.925257770853312,0.9449197860962567,0.43018617890142,0.0,0.9632446808510639,50,566,845,772019,no_split,wide,individual,1,0.5011537075042725
0,0.0,0.48975173878449635,0.38753533919608846,0.41481733894394324,0.4347887955470137,0.4546706247640378,0.47379580577353786,0.4956874600944688,0.5194056860758002,0.5556481023564073,0.6128175187416147,1.1249068314700466,0.9528795811518325,0.49189040772176656,0.0,0.953421052631579,50,566,8521,772019,no_split,wide,individual,1,0.5021190643310547
1,1.0,0.4940517080763624,0.3995955031060819,0.42542503389570036,0.44625281747394957,0.4649638457602861,0.48271558168582107,0.502291760424562,0.5235691203994093,0.5531986738988782,0.6013941889016551,1.1131992544512603,0.953968253968254,0.49189040772176656,0.0,0.953421052631579,50,566,8521,772019,no_split,wide,individual,1,0.5021190643310547
0,0.0,0.5810780362621802,0.4354634969772939,0.4662476616225382,0.4942526237663368,0.5222030743069482,0.5510932070838463,0.584267876252916,0.6234348765864086,0.675979674154175,0.7634642765536053,1.5316177047840487,0.9866304347826087,0.5728235180322306,0.0,0.9887634408602151,50,566,8704,772019,no_split,wide,individual,1,0.5015604496002197
1,1.0,0.5647446278497268,0.4403470669595231,0.4686000924933185,0.4904862383559965,0.5132083305971264,0.5371051086615706,0.564133378870034,0.5972834185067188,0.6429027305061105,0.7244017047034135,1.498323181219547,0.9908510638297873,0.5728235180322306,0.0,0.9887634408602151,50,566,8704,772019,no_split,wide,individual,1,0.5015604496002197
0,0.0,0.4455677288154593,0.3623754220311869,0.3814395401047555,0.3972756273868488,0.41239921032405197,0.428744647059438,0.44682373450350205,0.46859603669932764,0.5003407487953352,0.5498708156658304,1.2377168615195913,0.9979347826086956,0.4532989896167734,0.0,0.9972602739726028,50,566,8755,772019,no_split,wide,individual,1,0.5051944255828857
1,1.0,0.46115839286230814,0.3749265372572058,0.39566426906799324,0.41165779692634924,0.4281605589979073,0.44540645428427134,0.46412771978772527,0.48672874798784393,0.5185158129594354,0.5692469705292587,1.118124663588625,0.9965745856353592,0.4532989896167734,0.0,0.9972602739726028,50,566,8755,772019,no_split,wide,individual,1,0.5051944255828857
0,0.0,0.4523982615859333,0.3561545988730337,0.38134756906199957,0.4002305743463461,0.4192814014071294,0.43774927019934823,0.45681737835648684,0.4806953246262725,0.512498288409622,0.5691935387087109,1.0425078026821981,0.9745833333333334,0.4560146005088074,0.0,0.96828125,50,566,8785,772019,no_split,wide,individual,1,0.5021688938140869
1,1.0,0.45963093943168143,0.3685487082880472,0.39343687222651197,0.4119642352828202,0.4298999116704824,0.44874321031295883,0.46740093636859203,0.4889615725110065,0.5177676306059588,0.5659948163024732,1.0171984077929457,0.9619791666666667,0.4560146005088074,0.0,0.96828125,50,566,8785,772019,no_split,wide,individual,1,0.5021688938140869
0,0.0,0.4108831435413194,0.3252378912410399,0.3462868687559223,0.36352568360313486,0.3787939360785112,0.3948894138810253,0.41293352959652113,0.4335358965295608,0.46302534494208425,0.5149729164628571,1.033486018559137,0.9831746031746031,0.42446036330539905,0.0,0.9697612732095491,50,566,8788,772019,no_split,wide,individual,1,0.5011224746704102
1,1.0,0.43810980232354296,0.33941744181378586,0.3633104733081426,0.3828635417959438,0.40235987748954116,0.42083955512952664,0.4422641059845458,0.4692229557334757,0.5043468129129524,0.5603627173607348,1.0500603323556215,0.9562765957446808,0.42446036330539905,0.0,0.9697612732095491,50,566,8788,772019,no_split,wide,individual,1,0.5011224746704102
0,0.0,0.45784775467583866,0.3572370316071419,0.37976231171072083,0.3981870029043294,0.41698061250466867,0.43454218661965194,0.4557127639951458,0.4821275184154318,0.519115197433991,0.5814694177996136,1.3573031282112353,0.9865608465608465,0.4874802617233166,0.0,0.9654255319148937,50,566,916,772019,no_split,wide,individual,1,0.5027124881744385
1,1.0,0.5174296939798584,0.3690668929056499,0.3998307072840978,0.42589088529599545,0.45338778849531547,0.4849947218531384,0.5199475815978662,0.5640633814743488,0.6236287470398681,0.7150516473473754,1.5385341282276674,0.9440641711229947,0.4874802617233166,0.0,0.9654255319148937,50,566,916,772019,no_split,wide,individual,1,0.5027124881744385
0,0.0,0.41415711863526605,0.3311256073568162,0.3512787330821986,0.3679534068052051,0.3819774494828251,0.3966922611943024,0.4142913266263706,0.43456719825629586,0.46563333534205353,0.5215146998458811,1.1529713391988412,0.9712631578947368,0.42105817045329647,0.0,0.9611023622047244,50,566,985,772019,no_split,wide,individual,1,0.5059912204742432
1,1.0,0.4279230911099759,0.3436464861040502,0.3666448212911508,0.3832670421537346,0.3998037829142727,0.4148824150516373,0.4319662085280482,0.4527949782425098,0.4803776497624162,0.5243260336658527,1.0547828208887935,0.9509947643979058,0.42105817045329647,0.0,0.9611023622047244,50,566,985,772019,no_split,wide,individual,1,0.5059912204742432
0,0.0,0.4453201509523921,0.3561738996875473,0.37849882088190545,0.39459275880389116,0.4111690047456107,0.42686237784645753,0.4442920272258229,0.4665386196237234,0.4973083765942155,0.5552737185539641,1.3349840625922085,0.9902439024390244,0.46631001775787323,0.0,0.9727638190954774,50,566,275,772019,no_split,narrow,individual,1,0.5027036666870117
1,1.0,0.4886049540020371,0.37898315479018174,0.40737136984057204,0.42965683882282135,0.4503113819110897,0.4715614211288928,0.49500344183717504,0.5241321834752408,0.5612995168892958,0.6172618785238857,1.1624360820349144,0.9541968911917098,0.46631001775787323,0.0,0.9727638190954774,50,566,275,772019,no_split,narrow,individual,1,0.5027036666870117
0,0.0,0.47621349689730735,0.38323843922230616,0.4045602088589252,0.42330003670850014,0.44061776653859,0.45770130663392294,0.478471979372659,0.5023683653096955,0.5358468882243271,0.5917307504255361,1.132939961945487,0.9788571428571429,0.4819082766981589,0.0,0.9765656565656565,50,566,808,772019,no_split,narrow,individual,1,0.4994213581085205
1,1.0,0.4883378667958945,0.3988166903415004,0.4220390973215387,0.441468157114102,0.4571779128772033,0.4735214018536988,0.4916463782784866,0.5134670672429458,0.5434203116268004,0.594091099397627,1.0934239944162942,0.9739784946236559,0.4819082766981589,0.0,0.9765656565656565,50,566,808,772019,no_split,narrow,individual,1,0.4994213581085205
0,0.0,0.45847904382074384,0.38268007367015205,0.40283614289788355,0.4182732604546404,0.43212948541293833,0.4460473478210492,0.4615305728032866,0.4790042371835864,0.5032462690210362,0.5461599663939588,1.1296319524644864,0.9769,0.47313295071326766,0.0,0.9389866666666666,50,566,833,772019,no_split,narrow,individual,1,0.4983797073364258
1,1.0,0.4898802728761521,0.4003200753092395,0.42378281686392233,0.44269651653462816,0.4597703705474063,0.4769803489555998,0.4963826306793791,0.5180564759478561,0.5477699871743266,0.595542629166004,1.1149339471797177,0.8956571428571428,0.47313295071326766,0.0,0.9389866666666666,50,566,833,772019,no_split,narrow,individual,1,0.4983797073364258
0,0.0,0.5717149023331825,0.3812038950167776,0.4207265634608108,0.4541958832984861,0.4890138979347484,0.5238454448945769,0.5662760988987812,0.6219851474819603,0.7020289928230209,0.8301423724614062,1.6497862670284626,0.9324607329842932,0.5882550983819586,0.0,0.9064893617021277,50,566,837,772019,no_split,narrow,individual,1,0.4997439384460449
1,1.0,0.6053317332215059,0.4188570785322977,0.4624037295424778,0.49906632315959243,0.532548287739584,0.5706350468374849,0.6117470702065458,0.6586236855935692,0.7246168482429919,0.837246028227892,1.5645410418845165,0.8796756756756757,0.5882550983819586,0.0,0.9064893617021277,50,566,837,772019,no_split,narrow,individual,1,0.4997439384460449
0,0.0,0.427345725698789,0.3498914501983211,0.3726854391067434,0.3885967409913939,0.4035867957189598,0.41786742765423524,0.4332519923702609,0.45120480213804415,0.47453569512348637,0.514253499448893,0.858626632441687,0.9617708333333334,0.43458472046607277,0.0,0.9464171122994652,50,566,845,772019,no_split,narrow,individual,1,0.49776601791381836
1,1.0,0.442221462198592,0.3624210226476277,0.38462507221428643,0.4026120216065331,0.41852331529331305,0.4337328994122389,0.4508549015460599,0.46909956911354506,0.4931773160395068,0.5292276881524484,0.9504270436331356,0.9302197802197802,0.43458472046607277,0.0,0.9464171122994652,50,566,845,772019,no_split,narrow,individual,1,0.49776601791381836
0,0.0,0.4658488830305225,0.3543186470340682,0.37764810494907775,0.39585297886054804,0.4136820122168644,0.43424429235028855,0.45944210489565196,0.4893231908853643,0.5349133238710887,0.6159296190385941,1.4840704372702744,0.9854748603351955,0.4893363360297018,0.0,0.9702185792349727,50,566,916,772019,no_split,narrow,individual,1,0.49601030349731445
1,1.0,0.5118189782053865,0.3824657195122013,0.4116854736833562,0.4368800454238921,0.46087808522295054,0.4852368285637134,0.5139502682433394,0.5480274993690498,0.5947822471843851,0.6732667681704162,1.4663133413835183,0.955614973262032,0.4893363360297018,0.0,0.9702185792349727,50,566,916,772019,no_split,narrow,individual,1,0.49601030349731445
0,0.0,0.4104009320659238,0.3332870223172887,0.3554598682252581,0.3718060141251299,0.38674124071307997,0.4010026605791127,0.4154894596539795,0.4328391152438329,0.45617163932756205,0.4950664660003052,0.9522760683457723,0.979774011299435,0.4279127040277864,0.0,0.9383739837398374,50,566,985,772019,no_split,narrow,individual,1,0.4979586601257324
1,1.0,0.44405636880512844,0.35313255772459556,0.3784772196941291,0.3975750764096578,0.41459300374164115,0.4322109962650801,0.45093030077814966,0.47300823400066816,0.5030623355804623,0.5487593011429601,0.9925469066876402,0.9002083333333334,0.4279127040277864,0.0,0.9383739837398374,50,566,985,772019,no_split,narrow,individual,1,0.4979586601257324
0,0.0,0.41121910619505064,0.33248169440843706,0.3538431510618705,0.37038352058054275,0.3848148590817784,0.3991370924284253,0.4141553340063963,0.43291862120716623,0.45632034192250537,0.5016503659928304,1.0593980897844757,0.9829545454545454,0.4330622160097783,0.0,0.9301578947368421,50,566,1108,772019,no_split,narrow,individual,1,0.4983541965484619
1,1.0,0.45190725192836684,0.36132402497295696,0.3871145098551937,0.4070907593861395,0.4243528468547341,0.442459407099632,0.460747722784463,0.4817804116491704,0.5102488472385379,0.5522100157565872,1.0717986622701094,0.8846078431372549,0.4330622160097783,0.0,0.9301578947368421,50,566,1108,772019,no_split,narrow,individual,1,0.4983541965484619
0,0.0,0.4445872086246475,0.35038585592645816,0.37536563403532847,0.39562910946951113,0.4134924827111512,0.4315645712902499,0.4508624715439923,0.47228478246644506,0.5021425366909489,0.5539257053862121,1.1829633366488257,0.9596984924623115,0.45521481595429303,0.0,0.9225552825552825,50,566,1507,772019,no_split,narrow,individual,1,0.49671435356140137
1,1.0,0.4653825748898673,0.37102960029815757,0.39930142956824743,0.42102587222651805,0.4397715364803607,0.45741860997768513,0.4762653739990407,0.4971036802534667,0.5241314287614744,0.5684490054585131,1.0820523926533925,0.8870192307692307,0.45521481595429303,0.0,0.9225552825552825,50,566,1507,772019,no_split,narrow,individual,1,0.49671435356140137
0,0.0,0.4509851046316096,0.3592681490612289,0.38458875689307315,0.40332662368684996,0.42070446753914065,0.43736672754681855,0.45579893450228454,0.47720435332239475,0.5077402027981285,0.5592370843225127,1.075069251778713,0.9820430107526882,0.462113009906496,0.0,0.9670680628272251,50,566,1538,772019,no_split,narrow,individual,1,0.4927246570587158
1,1.0,0.4726731649122557,0.3748436712947892,0.40024486582044594,0.4217662784743861,0.4413776386906222,0.46011309082261914,0.4803031965226264,0.5041925882766679,0.5357752027047128,0.5891127971390713,1.1177652723117457,0.9528571428571428,0.462113009906496,0.0,0.9670680628272251,50,566,1538,772019,no_split,narrow,individual,1,0.4927246570587158
0,0.0,0.4700693779045093,0.37253748943997905,0.3973758198912119,0.4160473387137607,0.4338831136071321,0.4510104074903619,0.4704448189978155,0.49310793489073595,0.5258079863161197,0.594037523773395,1.1753256865577506,0.9910638297872341,0.4941701869718003,0.0,0.9667213114754099,50,566,1582,772019,no_split,narrow,individual,1,0.4971766471862793
1,1.0,0.5196249740765797,0.4193698648388256,0.4484187647292871,0.4690759560245576,0.488190248159572,0.5077141054460428,0.5281509256636074,0.5517120435089862,0.5824357406785085,0.6334283047123648,1.1234222170003736,0.9410112359550562,0.4941701869718003,0.0,0.9667213114754099,50,566,1582,772019,no_split,narrow,individual,1,0.4971766471862793
0,0.0,0.4503207981087108,0.3507942724906025,0.3737638780312519,0.39069476742227777,0.4069170213323992,0.42359945150972494,0.4423666528673552,0.4668971776618775,0.505437956268802,0.5868622307764054,1.3018194596117614,0.9846231155778894,0.4762025182286568,0.0,0.94,50,566,1583,772019,no_split,narrow,individual,1,0.48752641677856445
1,1.0,0.5019548297480032,0.39506865808555325,0.4251679705617388,0.448514303248555,0.46887735306248535,0.4893816972146704,0.510643172218857,0.5354294225798771,0.5673815909141773,0.6220348508089915,1.1322031330787445,0.8956,0.4762025182286568,0.0,0.94,50,566,1583,772019,no_split,narrow,individual,1,0.48752641677856445
0,0.0,0.5638085493346999,0.4061467058980537,0.4380903452636984,0.46318740911256123,0.48991934122617214,0.5188858155141887,0.5545118350964577,0.6015196546883566,0.67060076470831,0.7837356300280774,1.5931188583639928,0.9511475409836065,0.5728126686090566,0.0,0.9412087912087912,50,566,1597,772019,no_split,narrow,individual,1,0.4831995964050293
1,1.0,0.581916280914069,0.4338553404804054,0.467103244749502,0.4958146582544306,0.5223560264089216,0.5500898929706797,0.5801896379370646,0.6203302341603294,0.6750360851359927,0.7693980755868545,1.475757892143078,0.9311602209944752,0.5728126686090566,0.0,0.9412087912087912,50,566,1597,772019,no_split,narrow,individual,1,0.4831995964050293
0,0.0,0.4135560622911612,0.3310891276194124,0.35463423573911323,0.3718553479597705,0.3873036675875593,0.40357869274392366,0.41943587956871514,0.4392498520899939,0.46294099806597944,0.5028194699620454,1.040016545574068,0.9913661202185793,0.4417383423096978,0.0,0.96432,50,566,1601,772019,no_split,narrow,individual,1,0.49053096771240234
1,1.0,0.4685995779523653,0.3606347752828487,0.3887046290832495,0.41024879350985516,0.43201341996191756,0.4541874893475282,0.47706643407576027,0.5049031149512134,0.5400735237657219,0.5959338837554731,1.0678791182366156,0.9385416666666667,0.4417383423096978,0.0,0.96432,50,566,1601,772019,no_split,narrow,individual,1,0.49053096771240234
0,0.0,0.4979050631815116,0.37771244206711413,0.40474800419087653,0.42622041187914966,0.4474861541684895,0.4690489980226643,0.4943367101685832,0.5261045710636361,0.5724626269534241,0.6568218353036741,1.4780891676315082,0.9748514851485148,0.5165551239643317,0.0,0.9540322580645161,50,566,1614,772019,no_split,narrow,individual,1,0.49315905570983887
1,1.0,0.5387157844239179,0.41324867511762353,0.4466502473447366,0.4716092434921031,0.49456490664659164,0.5178538519971033,0.5438594427058645,0.5744936788206327,0.6142128405309935,0.6874105463790741,1.3673295560065184,0.9292941176470588,0.5165551239643317,0.0,0.9540322580645161,50,566,1614,772019,no_split,narrow,individual,1,0.49315905570983887
0,0.0,0.4627404166577246,0.3680851711966829,0.39582365561272426,0.41638883572841107,0.43456456580119157,0.4522166743953388,0.4708897632056653,0.4937421145826172,0.5221345502276573,0.566328533116552,1.0569355957851623,0.9930386740331492,0.48648325427937955,0.0,0.9735263157894737,50,566,1638,772019,no_split,narrow,individual,1,0.4930911064147949
1,1.0,0.5080784985483221,0.403822427031534,0.43576821671155025,0.45911883013178795,0.4800909601720738,0.5004774373198833,0.5213044658718592,0.5455877454564377,0.5755625945997599,0.6203523517932831,1.1176846381828427,0.9557788944723619,0.48648325427937955,0.0,0.9735263157894737,50,566,1638,772019,no_split,narrow,individual,1,0.4930911064147949
0,0.0,0.4024684294265952,0.3335776500540482,0.35274777917973454,0.3674387863265394,0.38111997139633386,0.3933714468653893,0.40698021122487554,0.42273461533753,0.4431180594754614,0.47941265982726095,0.8658498396091955,0.9725510204081632,0.41536455251242277,0.0,0.9321293800539083,50,566,1657,772019,no_split,narrow,individual,1,0.49480652809143066
1,1.0,0.4298082103685495,0.34701508787736807,0.36935108755759394,0.386891617897326,0.402455938900421,0.41791217271819425,0.4358855338354873,0.45617169046397227,0.48232053600815816,0.5286643792385546,0.8928383828390951,0.8868571428571429,0.41536455251242277,0.0,0.9321293800539083,50,566,1657,772019,no_split,narrow,individual,1,0.49480652809143066
0,0.0,0.463411048377227,0.37599124464668815,0.399188847228645,0.41632804825230524,0.43166336171466624,0.4471247571169664,0.4648714264333643,0.4863423025514054,0.515277509949294,0.5706211758213925,1.137392264203515,0.9902564102564102,0.48033641013129724,0.0,0.9738071065989847,50,566,1663,772019,no_split,narrow,individual,1,0.49291419982910156
1,1.0,0.49692156360890366,0.40307091433909403,0.42934890964638656,0.44983315955480535,0.4668029036429117,0.4845717236439394,0.5040892984687999,0.5266593197660819,0.5566047384886937,0.605027576166775,1.01781196393182,0.9576884422110553,0.48033641013129724,0.0,0.9738071065989847,50,566,1663,772019,no_split,narrow,individual,1,0.49291419982910156
0,0.0,0.5016028662547377,0.3893314147855072,0.41793344604126226,0.4389877815710081,0.45900870763144436,0.4794955780041093,0.5026417528297855,0.5304483600968538,0.573504020851175,0.6468802701406776,1.3221987029182505,0.9766850828729282,0.5160128789673755,0.0,0.9582872928176795,50,566,1761,772019,no_split,narrow,individual,1,0.4862549304962158
1,1.0,0.5304228916800131,0.41508095910961773,0.4464444951769993,0.4708285370029351,0.4919570824717259,0.5133798059899297,0.5372033931489081,0.5668863958305964,0.6034047031450801,0.6631648148240354,1.529139276556324,0.9398895027624309,0.5160128789673755,0.0,0.9582872928176795,50,566,1761,772019,no_split,narrow,individual,1,0.4862549304962158
0,0.0,0.4565125905057046,0.3535669227077644,0.3805461251953146,0.39999348385027617,0.41891106311630283,0.4370478967487649,0.4571960335837434,0.48394729066096764,0.5193688375908093,0.5809903375222913,1.1186893072798607,0.9686956521739131,0.47303878115697306,0.0,0.9362162162162162,50,566,1768,772019,no_split,narrow,individual,1,0.49042654037475586
1,1.0,0.4893872708334968,0.37258567816032573,0.40206149229756494,0.42596496198739836,0.4485185094328831,0.4707425477246548,0.49597805888407764,0.524356728302852,0.5640158830061222,0.6273309936030298,1.3384779083265708,0.9040860215053763,0.47303878115697306,0.0,0.9362162162162162,50,566,1768,772019,no_split,narrow,individual,1,0.49042654037475586
0,0.0,0.37904515186646015,0.2982405713466216,0.32201950175031213,0.3397011795529269,0.35554078055294036,0.3714009278147362,0.3870402092057596,0.40647760987519577,0.4297576623464934,0.465926888264367,0.8295578188225893,0.9694972067039106,0.39212172921292954,0.0,0.9286096256684492,50,566,1813,772019,no_split,narrow,individual,1,0.4899430274963379
1,1.0,0.40412535662327836,0.31956156474157954,0.3437361338362416,0.363658177299803,0.3797751442162357,0.3971437336893061,0.41422704155420453,0.43360465955390326,0.45780190700936946,0.4985834250322788,0.8677453538935938,0.8910769230769231,0.39212172921292954,0.0,0.9286096256684492,50,566,1813,772019,no_split,narrow,individual,1,0.4899430274963379
0,0.0,0.4067190475169743,0.3131347157528515,0.33578922199127764,0.3544113297760306,0.3713142930925881,0.38810956988259304,0.4074023740952244,0.43032476274080356,0.4639993141539365,0.5240134434726426,1.2394594081723345,0.9859512195121951,0.42420161798012623,0.0,0.9659405940594059,50,566,1821,772019,no_split,narrow,individual,1,0.4896221160888672
1,1.0,0.44221130112055923,0.3407653335866303,0.3688911956764115,0.38998028623838404,0.40998933960464384,0.42891427744342664,0.4487580843550973,0.47239642336094867,0.5049286518221143,0.5591109189454567,1.1334180957323028,0.9453266331658291,0.42420161798012623,0.0,0.9659405940594059,50,566,1821,772019,no_split,narrow,individual,1,0.4896221160888672
0,0.0,0.40306860247962045,0.31329283346041886,0.3341354920575159,0.34997884379500865,0.36649418119911875,0.3839927285612915,0.40294918960194676,0.42612761346350875,0.45949622624376574,0.5205910234213985,1.0553975660960224,0.9875138121546961,0.41072329655635675,0.0,0.9830319148936171,50,566,3286,772019,no_split,narrow,individual,1,0.4817008972167969
1,1.0,0.41782842285322475,0.33310543548362925,0.3556576891799005,0.3737165284330917,0.3899445240237973,0.4063599699380031,0.42297870387142655,0.44291434711419453,0.4702198519637329,0.5159851864393742,0.9769468081118625,0.9788717948717949,0.41072329655635675,0.0,0.9830319148936171,50,566,3286,772019,no_split,narrow,individual,1,0.4817008972167969
0,0.0,0.4800244305210999,0.37904627550679554,0.4041050994638972,0.4226062772909286,0.44030920811965263,0.4579810916509895,0.47825026818751704,0.5047539637612546,0.5409014694735526,0.6024234828322527,1.330526049017063,0.9840909090909091,0.5006673922728223,0.0,0.960989010989011,50,566,3292,772019,no_split,narrow,individual,1,0.48969602584838867
1,1.0,0.5199927181680516,0.4063704980556016,0.4350586687290181,0.4573323682530289,0.47942649011212407,0.5024087175003269,0.5273853889780772,0.556229360805665,0.592584378893403,0.6530096221291655,1.2413812923083911,0.9393617021276596,0.5006673922728223,0.0,0.960989010989011,50,566,3292,772019,no_split,narrow,individual,1,0.48969602584838867
0,0.0,0.40031101041758516,0.3243783919606466,0.34685199739914124,0.3627506890455091,0.3767201477412003,0.3906519733368524,0.40488617384159814,0.4212347561246032,0.44400475572842374,0.48462718053001813,0.9218514678747519,0.9886631016042781,0.42169018241851813,0.0,0.9372467532467532,50,566,3487,772019,no_split,narrow,individual,1,0.4931681156158447
1,1.0,0.44188162264162145,0.3565269293892461,0.38260254472194505,0.4021414396857631,0.41868528074919176,0.43593293228443,0.45362504870325826,0.47149871517352027,0.4952210467448181,0.5325207542016568,0.8565076972501846,0.8886868686868686,0.42169018241851813,0.0,0.9372467532467532,50,566,3487,772019,no_split,narrow,individual,1,0.4931681156158447
0,0.0,0.4124304826839728,0.35120263167187316,0.37055279792770857,0.3842868734914712,0.3964434394788558,0.40907071514370485,0.4199941693149687,0.4333024276387872,0.44908701300810744,0.4764375375732651,0.7825356133114081,0.9823880597014926,0.4224499625084677,0.0,0.9427918781725888,50,566,3580,772019,no_split,narrow,individual,1,0.4920332431793213
1,1.0,0.4328847575588486,0.3696067504580286,0.39003912829527687,0.40455917232547306,0.41685639055660273,0.42936027175774216,0.4418972033855748,0.45628727610760605,0.47408680200797737,0.4999053704270711,0.7170642925971286,0.9015544041450777,0.4224499625084677,0.0,0.9427918781725888,50,566,3580,772019,no_split,narrow,individual,1,0.4920332431793213
0,0.0,0.49400358083162077,0.3804513616241077,0.4076838670868381,0.42835237719323427,0.44870330164883143,0.46961483361806555,0.4931129134446542,0.5233718041867037,0.5686916095613099,0.6403474444228829,1.3451527942407733,0.9263440860215054,0.5004131822369352,0.0,0.9048066298342542,50,566,3625,772019,no_split,narrow,individual,1,0.49506616592407227
1,1.0,0.5071869655402789,0.39966016065903454,0.4268390572173784,0.4483558296038268,0.46840250887393825,0.4901845781911159,0.5123980533898228,0.5382152962986602,0.5736941883355825,0.6383211331760623,1.269014145467704,0.8820454545454546,0.5004131822369352,0.0,0.9048066298342542,50,566,3625,772019,no_split,narrow,individual,1,0.49506616592407227
0,0.0,0.5182221833136025,0.4234786854756423,0.45092155071456647,0.4715432406087829,0.4903529461605898,0.5081427223372651,0.5269567765624553,0.5489948120770731,0.5779244667841715,0.6230315842222418,1.2427494793342067,0.9957303370786517,0.5484982578863391,0.0,0.980650406504065,50,566,3754,772019,no_split,narrow,individual,1,0.49498724937438965
1,1.0,0.5767136572263764,0.44805006203006065,0.48287893706609347,0.5099951703908445,0.5340426054466622,0.5593085146631507,0.5880038979630496,0.6208125028659907,0.6631579379822926,0.724243610145289,1.3687938037392997,0.9665968586387435,0.5484982578863391,0.0,0.980650406504065,50,566,3754,772019,no_split,narrow,individual,1,0.49498724937438965
0,0.0,0.41529355911710863,0.3361526120588594,0.35744102141054873,0.3749703765382633,0.39001272444240614,0.4044471975566352,0.42014610312532563,0.4385936470293309,0.462882485724496,0.5057687148794082,0.9812867174103069,0.9941489361702127,0.4277084717727857,0.0,0.9838860103626943,50,566,3910,772019,no_split,narrow,individual,1,0.48975181579589844
1,1.0,0.43949636863777203,0.36019425403004524,0.3826744581868011,0.40002472779935394,0.41451661804392237,0.4305788703620305,0.4469904152440268,0.4672379592938123,0.4918990008033935,0.5295041354374698,0.9964067642552572,0.9741414141414141,0.4277084717727857,0.0,0.9838860103626943,50,566,3910,772019,no_split,narrow,individual,1,0.48975181579589844
0,0.0,0.40350012359916787,0.3345413159048815,0.3509234973195942,0.36387566213730954,0.3761152245223074,0.3895894817936906,0.40429939032050327,0.4215682651110606,0.44724797218756474,0.489525508884976,0.9642613767045811,0.9881767955801105,0.41405481870763505,0.0,0.9816842105263158,50,566,4222,772019,no_split,narrow,individual,1,0.48921966552734375
1,1.0,0.42365481777614034,0.35411480756066854,0.3719881222769881,0.38618702290298274,0.39937967987546624,0.41288485127749863,0.4274408830878745,0.4455027837448117,0.46854220209546804,0.505497780536797,0.8662224058102865,0.9757788944723618,0.41405481870763505,0.0,0.9816842105263158,50,566,4222,772019,no_split,narrow,individual,1,0.48921966552734375
0,0.0,0.4629565428166742,0.3577753525325969,0.3838448577817302,0.4050744003090139,0.42419486333635176,0.4435983942516677,0.46427952982502085,0.4884649568777423,0.5231292928368639,0.589761316457677,1.5531803482325708,0.9545454545454546,0.48338828434072356,0.0,0.8969269521410579,50,566,4264,772019,no_split,narrow,individual,1,0.4979228973388672
1,1.0,0.5037173537968126,0.38221557080157936,0.4136626142934877,0.43849013402058934,0.4611630090353087,0.4850462337186819,0.5105177368259934,0.5412608488577946,0.5809220074539659,0.652636129463765,1.2847205259253478,0.8395979899497488,0.48338828434072356,0.0,0.8969269521410579,50,566,4264,772019,no_split,narrow,individual,1,0.4979228973388672
0,0.0,0.42704498768827415,0.36065226458686006,0.37921559911476377,0.3934709584317379,0.4061561407547738,0.41910475753249277,0.43201875694847014,0.44711225910134006,0.4676484973363509,0.5004759640785306,0.9579186286624197,0.9958730158730159,0.445101749425048,0.0,0.9783695652173913,50,566,5281,772019,no_split,narrow,individual,1,0.484356164932251
1,1.0,0.46416726880074766,0.3846355618231083,0.4055416342242607,0.4228157177790306,0.4384048855428208,0.4541937460868445,0.4714223447011686,0.4904494564049627,0.5154384314555518,0.5571393798663273,0.9434028210444696,0.9598882681564246,0.445101749425048,0.0,0.9783695652173913,50,566,5281,772019,no_split,narrow,individual,1,0.484356164932251
0,0.0,0.45602229689537865,0.36532506096681955,0.38818282041260344,0.40451579553104694,0.420939173393272,0.4376269371854343,0.4571491999215856,0.48007499587756686,0.5104687141897516,0.5677073713866119,1.1341840372714498,0.9972826086956522,0.47794598964152524,0.0,0.9908648648648649,50,566,5332,772019,no_split,narrow,individual,1,0.4838080406188965
1,1.0,0.4996339437559928,0.4111312288442555,0.4352638376341372,0.45394143155689454,0.47273383797210816,0.48876601721523905,0.5076275983550342,0.5289949245642511,0.5567726333828533,0.6003868395957495,1.2316212980118657,0.984516129032258,0.47794598964152524,0.0,0.9908648648648649,50,566,5332,772019,no_split,narrow,individual,1,0.4838080406188965
0,0.0,0.4599619607030847,0.3749983365841069,0.39825969610871237,0.41566516197334114,0.4321516629797266,0.44776061117078925,0.46420431318579,0.48425127093680315,0.5114305487028188,0.5579990242919423,1.060502106070557,0.9808121827411167,0.4718631432540739,0.0,0.9614871794871794,50,566,5575,772019,no_split,narrow,individual,1,0.4852612018585205
1,1.0,0.4840109824382443,0.3953407572350966,0.4209902130136266,0.4395135011571535,0.45674739221044686,0.47408411378009907,0.4927973157573528,0.5126195605409983,0.540139554706106,0.5840847214756746,1.0469761811494727,0.9417616580310881,0.4718631432540739,0.0,0.9614871794871794,50,566,5575,772019,no_split,narrow,individual,1,0.4852612018585205
0,0.0,0.46139507740643354,0.36312956273788183,0.3893980598961585,0.40820712698623357,0.4267631038731358,0.4448020913771037,0.46507745082700575,0.4889589584551877,0.5237466508670536,0.5807863869599954,1.1661952782183949,0.9488082901554404,0.4665237634938653,0.0,0.9320408163265306,50,566,5731,772019,no_split,narrow,individual,1,0.4843254089355469
1,1.0,0.47149781582991745,0.3821426222268042,0.40800013303333255,0.42946581598415023,0.4462076397188674,0.4624707136188311,0.4810248596696023,0.5011801740256071,0.5269078720110283,0.5668848766436282,1.0656724501239994,0.9157788944723618,0.4665237634938653,0.0,0.9320408163265306,50,566,5731,772019,no_split,narrow,individual,1,0.4843254089355469
0,0.0,0.44011966818928205,0.36026800575546475,0.3843624901821234,0.40103497567096463,0.4166655499567658,0.43213389752186077,0.44757477297897036,0.46512218870308686,0.48821915068058025,0.5266446497351813,0.8750951723753642,0.9970652173913044,0.4631487226360891,0.0,0.9700817438692098,50,566,5761,772019,no_split,narrow,individual,1,0.4826085567474365
1,1.0,0.4863036189104744,0.40403329532435234,0.431773549264596,0.45083678555453577,0.46693888544261103,0.4830127117812453,0.4988208481843921,0.5163300826310687,0.5383344903512663,0.5699888849252864,0.9056368659154649,0.9429508196721311,0.4631487226360891,0.0,0.9700817438692098,50,566,5761,772019,no_split,narrow,individual,1,0.4826085567474365
0,0.0,0.45056943986311476,0.33013330687963893,0.3595246504278983,0.382265346905338,0.40375366937116036,0.425369210594328,0.4523434718528306,0.48481500647874787,0.5283558015293186,0.6040793992444028,1.2017080455599463,0.9122619047619047,0.4528586091452503,0.0,0.901680216802168,50,566,5803,772019,no_split,narrow,individual,1,0.48409342765808105
1,1.0,0.45477194466464704,0.35071070840808266,0.3781304115465831,0.40062550779318995,0.41970969172326644,0.43926497447798407,0.4602279100376394,0.48554186161674656,0.5194449805818437,0.5746146034259818,1.294616677228484,0.8928358208955224,0.4528586091452503,0.0,0.901680216802168,50,566,5803,772019,no_split,narrow,individual,1,0.48409342765808105
0,0.0,0.5049945752316443,0.3772085592473055,0.4096808375774148,0.43410043871950965,0.4569592131139715,0.48047473942983654,0.5047873030755632,0.5366498133520685,0.5809036028070329,0.6673115367745892,1.380982587754268,0.9683582089552238,0.5243110877423199,0.0,0.9291472868217054,50,566,5815,772019,no_split,narrow,individual,1,0.4853487014770508
1,1.0,0.5451853835199857,0.41904645450681155,0.4536740161753307,0.481712911501537,0.5073280646739033,0.5308755600644948,0.5579620500290337,0.5865493298454582,0.6253575496606909,0.6865917400861324,1.3338336953143266,0.886774193548387,0.5243110877423199,0.0,0.9291472868217054,50,566,5815,772019,no_split,narrow,individual,1,0.4853487014770508
0,0.0,0.41432622600432856,0.34983999157707296,0.36687801700562317,0.37956485108100246,0.3917161792011611,0.4036580654427787,0.4169013025119648,0.43228481794541534,0.4526212853145915,0.4897741254153643,0.8893168921957171,0.9971910112359551,0.44455440155450154,0.0,0.9776566757493188,50,566,6055,772019,no_split,narrow,individual,1,0.4841029644012451
1,1.0,0.4730232653001671,0.3823757109184871,0.4056343960326146,0.42403417363627666,0.44197337070795484,0.4595252990420359,0.4803748379012001,0.5030331957571774,0.5338585413592984,0.5789754338244119,0.9997294572878018,0.9592592592592593,0.44455440155450154,0.0,0.9776566757493188,50,566,6055,772019,no_split,narrow,individual,1,0.4841029644012451
0,0.0,0.4770017764986486,0.36007217080415876,0.38711421539464824,0.40769552110864,0.42617479332392894,0.44731489726196877,0.47273616463942253,0.5052553152003465,0.5511079319808834,0.6313586251555503,1.5229242870623632,0.9553061224489796,0.4883121437835183,0.0,0.9378688524590164,50,566,6109,772019,no_split,narrow,individual,1,0.48893117904663086
1,1.0,0.5013523319472503,0.38758624296618055,0.41645386415881924,0.43831758768492796,0.4588890345270179,0.4814883722797698,0.5046896646338671,0.5331795490620451,0.5719647680201423,0.6433734660465215,1.410455027179512,0.9177647058823529,0.4883121437835183,0.0,0.9378688524590164,50,566,6109,772019,no_split,narrow,individual,1,0.48893117904663086
0,0.0,0.40402541823695776,0.33250264173458116,0.3510108455010989,0.3651959935301333,0.3776448758048928,0.39031669991796636,0.403852688367066,0.4203615122729303,0.44352637363921527,0.49153891186074194,0.9313264375950201,0.9885849056603774,0.4244370924883604,0.0,0.9426858513189449,50,566,6214,772019,no_split,narrow,individual,1,0.48464488983154297
1,1.0,0.4455457507385915,0.3694568428815914,0.39067877238923143,0.4071314654161994,0.42296482801191526,0.43847606181671356,0.45446964427215875,0.47135769467969063,0.4937456902702513,0.5281631922258804,0.8873655596304143,0.895219512195122,0.4244370924883604,0.0,0.9426858513189449,50,566,6214,772019,no_split,narrow,individual,1,0.48464488983154297
0,0.0,0.4610170732512626,0.36389775667132024,0.3902125174911488,0.40989003691574527,0.4275616876917916,0.44550505868984247,0.4646951033127229,0.4888777676735467,0.5204254191135954,0.5772682231475159,1.1406718686979371,0.946063829787234,0.46923911607019547,0.0,0.9244562334217507,50,566,6253,772019,no_split,narrow,individual,1,0.47741079330444336
1,1.0,0.4774176560170704,0.3788688752602146,0.40506852252555087,0.42668105230636544,0.44636665738411624,0.4648999639687993,0.48543688468171176,0.5081093376246169,0.5402131208574235,0.5891476497897353,1.054789542737991,0.902962962962963,0.46923911607019547,0.0,0.9244562334217507,50,566,6253,772019,no_split,narrow,individual,1,0.47741079330444336
0,0.0,0.4655105731186068,0.3764470241007629,0.4029358880896538,0.4223007031309581,0.43987085247443647,0.45744696570221327,0.4749328265402919,0.4954312944833031,0.5203548983026917,0.5639619510897582,1.192143916820232,0.9779005524861878,0.47642139274551826,0.0,0.953695652173913,50,566,6262,772019,no_split,narrow,individual,1,0.484935998916626
1,1.0,0.4869821325983043,0.3984178944623703,0.4275525350787262,0.4474537346087157,0.46498254613618467,0.4822702357481704,0.5006094426119668,0.5200937472023326,0.5438287702998329,0.5808083817637036,0.8222609204607759,0.9302673796791444,0.47642139274551826,0.0,0.953695652173913,50,566,6262,772019,no_split,narrow,individual,1,0.484935998916626
0,0.0,0.5117533578602206,0.41040144443156024,0.43568650968170647,0.4565387286142341,0.475104061524446,0.49276282275797806,0.5137108343173751,0.5391281171027489,0.5762249651414718,0.6420225024323682,1.209536802278396,0.9833155080213903,0.5188593155923826,0.0,0.9776086956521739,50,566,6361,772019,no_split,narrow,individual,1,0.48372435569763184
1,1.0,0.5262008299344506,0.4374287293483675,0.4627934550545688,0.4831606565230751,0.5006218030646726,0.5179863676023051,0.535332778834453,0.555094530342725,0.5809813851829113,0.6263609429619539,1.0623801298912372,0.9717127071823204,0.5188593155923826,0.0,0.9776086956521739,50,566,6361,772019,no_split,narrow,individual,1,0.48372435569763184
0,0.0,0.4213218391059263,0.341543420347223,0.36464827134147165,0.38170309128251495,0.3969003146707363,0.411879095865505,0.42852436480335865,0.4472770536581911,0.4700796351539235,0.51191447302284,0.9229514750598075,0.980655737704918,0.42896237803381243,0.0,0.9629473684210527,50,566,6427,772019,no_split,narrow,individual,1,0.48071765899658203
1,1.0,0.4360599344998182,0.3604112131415301,0.3847297330429185,0.40229685388640624,0.41755974494866266,0.43113300786324077,0.4466753606297008,0.46364618268066254,0.4849795988416643,0.5169769017196189,0.8103981002642369,0.946497461928934,0.42896237803381243,0.0,0.9629473684210527,50,566,6427,772019,no_split,narrow,individual,1,0.48071765899658203
0,0.0,0.473038887006007,0.38666855694977037,0.40648212704353026,0.4235869734847896,0.4382028960328835,0.4540794496321443,0.4727200523999768,0.49559657689455655,0.5285748946882707,0.5839753654737555,1.0626265588884716,0.9699476439790576,0.47625346224435733,0.0,0.9665435356200528,50,566,6583,772019,no_split,narrow,individual,1,0.48670315742492676
1,1.0,0.47951933389608564,0.40287257850304903,0.42341683893508764,0.440303779153681,0.45479831610408306,0.46955581330267665,0.4848190708222423,0.5028474742798329,0.5281625104237723,0.5671983199478543,1.0614468032545104,0.9630851063829787,0.47625346224435733,0.0,0.9665435356200528,50,566,6583,772019,no_split,narrow,individual,1,0.48670315742492676
0,0.0,0.44845618644203755,0.3616307307026053,0.38481085410072446,0.40364911797721764,0.4199185987736444,0.43608457875251455,0.4531804289100675,0.4729023408237554,0.5001938731486509,0.5501415858016828,1.034884002465442,0.9818461538461538,0.4674080251729079,0.0,0.9492820512820512,50,566,6634,772019,no_split,narrow,individual,1,0.4874911308288574
1,1.0,0.4863598639037781,0.391052220314095,0.4176744478677391,0.4382601764261931,0.456960876582484,0.47617361274534986,0.49565833201228243,0.5183011706093847,0.5483068244658011,0.5949565883278503,1.0211096833558047,0.9167179487179488,0.4674080251729079,0.0,0.9492820512820512,50,566,6634,772019,no_split,narrow,individual,1,0.4874911308288574
0,0.0,0.4494863574996959,0.3789430643794292,0.40014621609008044,0.41553458714181896,0.42875644589065,0.44245287137289535,0.4561476104440101,0.4718856255741124,0.4913347913367712,0.5239431867357914,1.0958940306520613,0.9970526315789474,0.4837515183155705,0.0,0.9446933333333334,50,566,6844,772019,no_split,narrow,individual,1,0.4826393127441406
1,1.0,0.5189427645589012,0.4166276972280606,0.444148109682852,0.465915095678227,0.48669892672635734,0.5088818119209074,0.5312113191059878,0.5557560434321873,0.5876837876355171,0.6369092788218454,1.0591441621801843,0.890918918918919,0.4837515183155705,0.0,0.9446933333333334,50,566,6844,772019,no_split,narrow,individual,1,0.4826393127441406
0,0.0,0.44707158332113534,0.3556872523785139,0.38149343845089023,0.3998707654119218,0.4172166595106528,0.4343735954350765,0.4524731320038724,0.47352257420304844,0.5008909073351353,0.5535459445277698,1.0809793123770346,0.9830601092896175,0.46426276233172664,0.0,0.9446866485013624,50,566,7624,772019,no_split,narrow,individual,1,0.4829840660095215
1,1.0,0.48136051102160815,0.38515155283488095,0.4123371628951421,0.43393101023798825,0.45306854188623696,0.47209246413060457,0.4923153235650567,0.5144662309470157,0.5431980497358225,0.5900423310634643,1.0517274219890513,0.9065217391304348,0.46426276233172664,0.0,0.9446866485013624,50,566,7624,772019,no_split,narrow,individual,1,0.4829840660095215
0,0.0,0.40875546592772866,0.33919117971202745,0.35797959909704763,0.37214870651872944,0.3846503047270507,0.39710173068395416,0.4105635006107953,0.42718582564333607,0.4481863294322049,0.4879704723156011,1.2342874047589436,0.9851336898395722,0.43128141842744777,0.0,0.931070496083551,50,566,7756,772019,no_split,narrow,individual,1,0.4838540554046631
1,1.0,0.45277301596544506,0.36729128916202636,0.38977175946860987,0.40836258982505513,0.4251401706666016,0.4415706788223608,0.4608579612832052,0.48223352484364945,0.5088350952537226,0.5516565047818718,0.9490334422375477,0.8794897959183674,0.43128141842744777,0.0,0.931070496083551,50,566,7756,772019,no_split,narrow,individual,1,0.4838540554046631
0,0.0,0.4400145499440934,0.34344355622145856,0.368344998807807,0.38827106364294794,0.40646056695079946,0.42531355138235594,0.44505016710352996,0.4684848880987489,0.5010390717178467,0.5543854281727991,1.1083346520324393,0.9804166666666667,0.44888769890883906,0.0,0.9706417112299465,50,566,7768,772019,no_split,narrow,individual,1,0.4823434352874756
1,1.0,0.4582483835309883,0.3612686066500933,0.3890411598557184,0.4101586741559187,0.42941859005744953,0.44828119203786626,0.4688730728633116,0.4910130795546577,0.5192482784857062,0.5660660660349268,1.0093652304847307,0.9603296703296703,0.44888769890883906,0.0,0.9706417112299465,50,566,7768,772019,no_split,narrow,individual,1,0.4823434352874756
0,0.0,0.4077884994706632,0.31935324441597884,0.34243392387493204,0.36035381081228185,0.376491738533017,0.3922124008102835,0.40977187566896606,0.430139426386446,0.4603066499048167,0.5135715169569243,1.0939578162814287,0.9768983957219252,0.42960001823953137,0.0,0.9283870967741935,50,566,7807,772019,no_split,narrow,individual,1,0.4839169979095459
1,1.0,0.45164733721130607,0.35005291578438297,0.378050414381982,0.3992851472900248,0.41962687562304707,0.4398315482584882,0.46077828885462646,0.48525228033044654,0.5188398253331,0.5673002033751435,1.2220256376428051,0.8793513513513513,0.42960001823953137,0.0,0.9283870967741935,50,566,7807,772019,no_split,narrow,individual,1,0.4839169979095459
0,0.0,0.4050330922554498,0.3262152483818119,0.34597431010192137,0.3615663965416749,0.3754161093227096,0.38929807588510446,0.40502597250549355,0.4252799713697139,0.45341307978103085,0.503482347814532,0.9489277557676707,0.9857142857142858,0.4190956813147246,0.0,0.9654293628808864,50,566,7813,772019,no_split,narrow,individual,1,0.4848446846008301
1,1.0,0.4333939562241547,0.3546329823270743,0.3769544667505141,0.3938453913301066,0.4088588122498003,0.4236938199466987,0.4399221084171997,0.4588060506982495,0.48291632535105455,0.5211581845143718,0.9556966752792279,0.9448044692737431,0.4190956813147246,0.0,0.9654293628808864,50,566,7813,772019,no_split,narrow,individual,1,0.4848446846008301
0,0.0,0.4092971251296242,0.34643475215946173,0.36522966343585445,0.3790666724484361,0.3911056594781455,0.4026565692427283,0.4153359249260139,0.4294039511757612,0.44759025835536353,0.47739525083560475,0.8610495016279445,0.9976595744680851,0.43354696867038184,0.0,0.9700990099009901,50,566,7828,772019,no_split,narrow,individual,1,0.4878058433532715
1,1.0,0.4546533139743745,0.3839426141767772,0.40568065810778214,0.42129617908649236,0.4362296450466895,0.4502684094640469,0.46499764143387734,0.4809502944886434,0.5008002218906077,0.5298745316493757,0.8223119853247115,0.9461111111111111,0.43354696867038184,0.0,0.9700990099009901,50,566,7828,772019,no_split,narrow,individual,1,0.4878058433532715
0,0.0,0.543569540252168,0.4017706202026256,0.43113754288231065,0.45545052159036614,0.4794835219188437,0.5064450495317725,0.538554989384891,0.578218547020881,0.6347927706158667,0.7380453811111791,1.5267376026961301,0.9813756613756613,0.5633504592455936,0.0,0.9676485788113696,50,566,7840,772019,no_split,narrow,individual,1,0.47898077964782715
1,1.0,0.5822322455575,0.43402704081688015,0.47062849043873367,0.500351683432805,0.5267643103300002,0.5552853626559502,0.587858519602366,0.6247652673362291,0.6762084345548811,0.7647898043215088,1.5751168401892115,0.9545454545454546,0.5633504592455936,0.0,0.9676485788113696,50,566,7840,772019,no_split,narrow,individual,1,0.47898077964782715
0,0.0,0.4729391325240572,0.3867497441101074,0.41032710360618135,0.4288478688895095,0.44453066940553937,0.46098374534262576,0.4780732299548807,0.4988890922117748,0.525234230320321,0.5750377744161352,1.3373823043294801,0.9997777777777778,0.49730554796474585,0.0,0.9972266666666667,50,566,7924,772019,no_split,narrow,individual,1,0.477618932723999
1,1.0,0.5197976237561507,0.4308364486247018,0.4555971300032856,0.4750027889570885,0.4931858028461618,0.5104326466271756,0.5289427996169555,0.5510554681515847,0.5775572593163336,0.6204039616461791,1.1069677204148975,0.9948717948717949,0.49730554796474585,0.0,0.9972266666666667,50,566,7924,772019,no_split,narrow,individual,1,0.477618932723999
0,0.0,0.4700153440640883,0.3781198429700931,0.4013687356729341,0.4191892710516717,0.435742891234485,0.45227536779324906,0.4712613242785117,0.49437638559788916,0.5262018065138612,0.582305808630035,1.2128359588618796,0.9886315789473684,0.4808607753864974,0.0,0.9796455696202532,50,566,7939,772019,no_split,narrow,individual,1,0.4784853458404541
1,1.0,0.4909126385633645,0.4009103947560424,0.42632845956388793,0.44514027034506193,0.4626753255464861,0.48094546419139633,0.4987216256919081,0.5209694441834051,0.546735701261247,0.5918409220498222,1.0081757942772962,0.9713170731707317,0.4808607753864974,0.0,0.9796455696202532,50,566,7939,772019,no_split,narrow,individual,1,0.4784853458404541
0,0.0,0.45196603897242665,0.36297457516237164,0.38385544782453096,0.400152085951304,0.41607146415180485,0.43280299713792025,0.45060480872029024,0.4736872105072704,0.5058452756101428,0.5679969286491927,1.3067558541340907,0.9718787878787879,0.4669736934783118,0.0,0.9438983050847458,50,566,8026,772019,no_split,narrow,individual,1,0.472714900970459
1,1.0,0.4800756140786878,0.38761065147793244,0.41122659440823633,0.4307266918505256,0.44880011666022424,0.46587700275037014,0.48536124985603674,0.5087513816679593,0.539974861533501,0.5887202164713653,1.163840772691697,0.9194708994708994,0.4669736934783118,0.0,0.9438983050847458,50,566,8026,772019,no_split,narrow,individual,1,0.472714900970459
0,0.0,0.4492373497463476,0.34688935275740385,0.3719777838398839,0.3919136460686628,0.410566094096544,0.42952937168219796,0.4513462852149118,0.4759958638184208,0.5114644266088165,0.5784211544148962,1.2015286327683894,0.9416042780748664,0.46174024762804017,0.0,0.9075068493150685,50,566,8311,772019,no_split,narrow,individual,1,0.47902512550354004
1,1.0,0.47487531450375103,0.36810165600239336,0.39627595171856606,0.41879535302991566,0.43878022071697703,0.4595497467524943,0.4814031388219051,0.5078609409582029,0.541363334102217,0.5989310886280629,1.310535516293266,0.871685393258427,0.46174024762804017,0.0,0.9075068493150685,50,566,8311,772019,no_split,narrow,individual,1,0.47902512550354004
0,0.0,0.38544586289176125,0.3210021087838246,0.34086957453184863,0.35490865210966815,0.3677843905460523,0.38058907792672747,0.39256180542594576,0.4074397041289485,0.4251893153864004,0.4530526558582048,0.8347275840172681,0.9944041450777202,0.41137715644932327,0.0,0.9322493224932249,50,566,8446,772019,no_split,narrow,individual,1,0.47940492630004883
1,1.0,0.4398131772255135,0.3556877470599321,0.3813013251434952,0.4003876726587741,0.4173077514495287,0.4332269109038916,0.4508131391035887,0.4708983402889482,0.4943312478262382,0.5312285190645502,0.7916806441999904,0.8640909090909091,0.41137715644932327,0.0,0.9322493224932249,50,566,8446,772019,no_split,narrow,individual,1,0.47940492630004883
0,0.0,0.4882332224831526,0.4037165971239059,0.42582217041842874,0.44363039207064203,0.45974589935366844,0.475550928030622,0.49295426946641036,0.5129551816394483,0.5404112191003415,0.5881169232974564,1.0487658092671368,0.9776884422110553,0.4970974243773951,0.0,0.9623896103896104,50,566,8521,772019,no_split,narrow,individual,1,0.4856693744659424
1,1.0,0.506581167264246,0.4192959031240121,0.4439188504197781,0.4621158596544691,0.47934111471258983,0.495879021452736,0.5139671417206361,0.5343175774592008,0.5617792335680077,0.6057847528559515,1.1129696862850993,0.9460215053763441,0.4970974243773951,0.0,0.9623896103896104,50,566,8521,772019,no_split,narrow,individual,1,0.4856693744659424
0,0.0,0.5565124967204241,0.4324509602759763,0.4632909937300388,0.4864029162001935,0.5078703099433272,0.5303568877124575,0.5559579230919818,0.5880731384276786,0.6344173967416292,0.7168790140741895,1.5505122478348452,0.9866666666666667,0.5676622926270474,0.0,0.9817191977077364,50,566,8704,772019,no_split,narrow,individual,1,0.47049498558044434
1,1.0,0.5799539351024213,0.45375725021045527,0.489170023434048,0.514063836644728,0.536845894182341,0.5599529478143139,0.5861268829691532,0.6147742489721736,0.6580518182904361,0.7275671572884338,1.545429584703151,0.9762650602409638,0.5676622926270474,0.0,0.9817191977077364,50,566,8704,772019,no_split,narrow,individual,1,0.47049498558044434
0,0.0,0.4509961254962176,0.36384496968262886,0.3846622806241018,0.4008205742808439,0.41693040842249757,0.43193872872144956,0.4493052487006185,0.4725344009613953,0.5051572712778563,0.5630463928441968,1.1983849010432628,0.9921739130434782,0.46794245820863817,0.0,0.9860824742268042,50,566,8755,772019,no_split,narrow,individual,1,0.4741983413696289
1,1.0,0.4873230707582019,0.38789833134507423,0.41271240494636624,0.43255085731184,0.45012158126689533,0.4698902166497727,0.4911424132214677,0.5157231725723088,0.5499489139660036,0.6101450354902144,1.2935042759316338,0.9791160220994475,0.46794245820863817,0.0,0.9860824742268042,50,566,8755,772019,no_split,narrow,individual,1,0.4741983413696289
0,0.0,0.47186328947187123,0.3676382740639357,0.3955120712614385,0.4166193326381795,0.4354562156753154,0.4553693903789948,0.4759889888375337,0.5014380642009628,0.5393527371603853,0.6001649278612003,1.292488420750814,0.97125,0.47656684407080235,0.0,0.9553,50,566,8785,772019,no_split,narrow,individual,1,0.4726409912109375
1,1.0,0.4816623615529778,0.39665931562202505,0.42220584471775324,0.4416759271610723,0.458489940798597,0.475017129421881,0.49230784110593173,0.5118990689650093,0.5355987554655712,0.572794871975189,1.025847219262765,0.9380208333333333,0.47656684407080235,0.0,0.9553,50,566,8785,772019,no_split,narrow,individual,1,0.4726409912109375
0,0.0,0.41043657943009454,0.3238365576658327,0.34403854697945,0.36014202733101003,0.3749292512969872,0.3906101572543154,0.40835046797645985,0.4294691196903775,0.4608182027546386,0.517524778720485,1.126282979243479,0.9712765957446808,0.43409965324897176,0.0,0.9115167095115682,50,566,8788,772019,no_split,narrow,individual,1,0.4648630619049072
1,1.0,0.4562322795074239,0.3538190437899961,0.3795285365357924,0.4006940826259628,0.4200630898726082,0.44037601340804133,0.46272383067502393,0.4882388901597042,0.5218081357564738,0.5764041320336589,1.2724567144620262,0.8556218905472637,0.43409965324897176,0.0,0.9115167095115682,50,566,8788,772019,no_split,narrow,individual,1,0.4648630619049072
0,0.0,0.4340241858027104,0.3777787641255403,0.3926971633644319,0.4046254518045371,0.4151903901120433,0.42578306535170085,0.4371989471912558,0.44978188588782053,0.4677594354306842,0.4989478630307963,0.872069328131501,0.9944444444444445,0.451351030203165,0.0,0.9712568306010929,50,566,161753,772019,no_split,narrow,individual,1,0.4789083003997803
1,1.0,0.4681189441390888,0.40604008598801744,0.42389248170323685,0.4378211723987416,0.4509548230824968,0.46273528327881985,0.4757090837513276,0.49018462348353,0.5088166042731062,0.5363016407082238,0.8365744887256983,0.9488172043010753,0.451351030203165,0.0,0.9712568306010929,50,566,161753,772019,no_split,narrow,individual,1,0.4789083003997803
0,0.0,0.4463449242144908,0.3756562066423499,0.3950501546441684,0.4096419544856295,0.4225074356285908,0.43444636324505115,0.44868335283179667,0.46594536538883424,0.4872612717383558,0.5291046221519132,1.0109381433159246,0.997319587628866,0.4678418682168519,0.0,0.9874468085106383,50,566,337788,772019,no_split,narrow,individual,1,0.47442102432250977
1,1.0,0.4907561931424457,0.3989077222354401,0.42341415225560697,0.44213515274072634,0.4592674823107663,0.4765907765705326,0.49681005377926285,0.519474149480323,0.5489036720413185,0.5998664727933972,1.022890694069648,0.9769230769230769,0.4678418682168519,0.0,0.9874468085106383,50,566,337788,772019,no_split,narrow,individual,1,0.47442102432250977
