,congruency,mean_rt,qu10_rt,qu20_rt,qu30_rt,qu40_rt,qu50_rt,qu60_rt,qu70_rt,qu80_rt,qu90_rt,qu100_rt,mean_acc,mean_rt_overall,nonconvergent_trials,accuracy_overall,n_posterior_draws,condition,id,slurm_id,split,spacing,estimation_level,number_parts,time_post_sampling_sec
0,0.0,0.4209193939465854,0.3418557910787828,0.3582804739330415,0.37165602442435924,0.38608387520926585,0.4017828665798106,0.4203868140682501,0.44426316496229473,0.47412977174230636,0.5274436735229426,1.0013785052236601,0.9765263157894737,0.4273803835336203,0.0,0.9616931216931217,50,1163,1108,772030,no_split,wide,individual,1,0.49399328231811523
1,1.0,0.43391010705243205,0.34919685451556054,0.37015102793530114,0.3873288892155342,0.403404959126661,0.419980443075634,0.43823627278074984,0.4608078732480172,0.48940595483612614,0.5347494997264701,1.0891306818181032,0.9467021276595745,0.4273803835336203,0.0,0.9616931216931217,50,1163,1108,772030,no_split,wide,individual,1,0.49399328231811523
0,0.0,0.4447936662554945,0.35701554044983047,0.37812869689271,0.395489032619162,0.4123024561685845,0.42837913417333384,0.44729690465481015,0.4711204866613339,0.5011975496375372,0.5522862509579142,1.4174405049084904,0.9682539682539683,0.4521178894327901,0.0,0.959,50,1163,1507,772030,no_split,wide,individual,1,0.48003053665161133
1,1.0,0.4593654191736744,0.3638082216690976,0.38692157497245516,0.4050474115250979,0.4236081793299631,0.44349021293448554,0.46435759716010466,0.49009555099715785,0.5236340104675384,0.5744807196659383,1.0988828793143806,0.9498429319371727,0.4521178894327901,0.0,0.959,50,1163,1507,772030,no_split,wide,individual,1,0.48003053665161133
0,0.0,0.4517010159207573,0.3568923172519404,0.38181140534280067,0.40110874053721357,0.41802433267642786,0.4358987513689269,0.45623061871411064,0.4806495292936439,0.5122107996551667,0.566010019637711,0.9968210106453576,0.9883157894736843,0.46156935155606055,0.0,0.9813123359580053,50,1163,1538,772030,no_split,wide,individual,1,0.4873342514038086
1,1.0,0.47138602051264505,0.3671539174433226,0.3960445975901828,0.41846859244986245,0.4382134140220105,0.45885718486965754,0.4805951952675029,0.5059394041012376,0.5382392142283701,0.5899090093260745,1.0021571575123605,0.9743455497382199,0.46156935155606055,0.0,0.9813123359580053,50,1163,1538,772030,no_split,wide,individual,1,0.4873342514038086
0,0.0,0.4661314434315652,0.3748836381339568,0.3978253803359233,0.4156917829100485,0.4338187125519798,0.4525503303365659,0.4726756922699218,0.49573232508922394,0.5263821984159743,0.5743711681925356,1.1025866576795906,0.9836956521739131,0.4698652487904811,0.0,0.9792432432432432,50,1163,1582,772030,no_split,wide,individual,1,0.48957157135009766
1,1.0,0.47355890570467735,0.3792870214810222,0.4030712227599527,0.42346846847130615,0.44211449676183456,0.46034498826634074,0.48069622711321386,0.5047762466814499,0.5357699711444539,0.5852400001609818,1.1328255054502692,0.9748387096774194,0.4698652487904811,0.0,0.9792432432432432,50,1163,1582,772030,no_split,wide,individual,1,0.48957157135009766
0,0.0,0.44169209505785917,0.3583674100667775,0.3794321438648439,0.3954873895986084,0.41115698905681014,0.4263851721827846,0.44287542153122744,0.46387054394661587,0.49283347907522124,0.5434402125661046,1.0221326395307475,0.9744502617801047,0.45317189811755293,0.0,0.9554569190600523,50,1163,1583,772030,no_split,wide,individual,1,0.48837924003601074
1,1.0,0.46459191053631077,0.3696322067608207,0.39350288654102006,0.41344868945738383,0.43142681138027356,0.45017401051429895,0.4717174936692741,0.4957801247615903,0.5276000117702475,0.5760760622847955,1.0656116291758233,0.9365625,0.45317189811755293,0.0,0.9554569190600523,50,1163,1583,772030,no_split,wide,individual,1,0.48837924003601074
0,0.0,0.5675686226537486,0.4023849284369162,0.4401539991713467,0.47103552509304303,0.502071362523633,0.5360273089086741,0.5713445416201369,0.6159338743094968,0.6773669705830472,0.7776247682665828,1.4620667356398487,0.9690395480225988,0.5730137379379806,0.0,0.9628571428571429,50,1163,1597,772030,no_split,wide,individual,1,0.4799208641052246
1,1.0,0.578167670586692,0.40978384495163306,0.4495710283877562,0.48376910385993344,0.514021481516722,0.5502720907959429,0.5872178938926321,0.6311498881797434,0.6873373423148458,0.7803957405365984,1.5298003654083658,0.9570053475935829,0.5730137379379806,0.0,0.9628571428571429,50,1163,1597,772030,no_split,wide,individual,1,0.4799208641052246
0,0.0,0.40802492789226047,0.33434100174757264,0.35417328122616576,0.36926654650476276,0.38353076553286325,0.39699175818061894,0.4126843986817911,0.43079272166622873,0.45702313908291836,0.49675222720924406,0.7919278849691891,0.9909473684210526,0.4182805196977431,0.0,0.9847493403693931,50,1163,1601,772030,no_split,wide,individual,1,0.4792366027832031
1,1.0,0.428590373893731,0.3443721718696364,0.3678007940978177,0.38554327468150734,0.40139828926724774,0.41861150461152463,0.4369240665438678,0.4574273576556196,0.4852810276415455,0.5248707711568248,0.8630875016005876,0.9785185185185186,0.4182805196977431,0.0,0.9847493403693931,50,1163,1601,772030,no_split,wide,individual,1,0.4792366027832031
0,0.0,0.48480071055317653,0.35218466892435574,0.3804425533262258,0.4057275309034183,0.42935781105112353,0.45697156573096825,0.4878287929878475,0.522533124607762,0.5744426199291551,0.6557481112912583,1.3579650370189016,0.974,0.490188527366877,0.0,0.969,50,1163,1614,772030,no_split,wide,individual,1,0.4756505489349365
1,1.0,0.4955763441805774,0.3558181036456993,0.38839136468648044,0.4155466221002173,0.4408778565988732,0.46855483277527854,0.5009229985676656,0.5374512558819285,0.5862245173006163,0.6662713320471019,1.4819448135718398,0.964,0.490188527366877,0.0,0.969,50,1163,1614,772030,no_split,wide,individual,1,0.4756505489349365
0,0.0,0.42423917387878457,0.37174723827382294,0.3864160214585355,0.3978608502745031,0.4079485813067905,0.41828265549155674,0.42927420010159006,0.4420888644915278,0.4574610668830995,0.4834357234251187,0.7118651580281662,0.9946315789473684,0.4301914149948236,0.0,0.9910236220472441,50,1163,161753,772030,no_split,wide,individual,1,0.47615981101989746
1,1.0,0.43611249254481016,0.37716091995981876,0.3927203508379578,0.40595470433217806,0.418738233132196,0.43080167552916465,0.4431814682279942,0.4574725590878444,0.4755218795971378,0.5027434989589452,0.690640581896661,0.987434554973822,0.4301914149948236,0.0,0.9910236220472441,50,1163,161753,772030,no_split,wide,individual,1,0.47615981101989746
0,0.0,0.46916055890649894,0.3738532667836132,0.3965967718259491,0.4147723507339719,0.43281378739084203,0.4525805487253807,0.4732721806936494,0.49802783992978034,0.5305212638212606,0.585647544944361,1.2499451045910306,0.9837234042553191,0.4751118738290704,0.0,0.9780474934036939,50,1163,1638,772030,no_split,wide,individual,1,0.46927785873413086
1,1.0,0.48096971260102545,0.3816580392901153,0.40621741704509035,0.42585210800990086,0.4461314501610405,0.4651587473157452,0.4867383434618711,0.5125410910057804,0.5449924640538717,0.6021008162002885,1.0809553030924677,0.9724607329842931,0.4751118738290704,0.0,0.9780474934036939,50,1163,1638,772030,no_split,wide,individual,1,0.46927785873413086
0,0.0,0.3976832435976612,0.32637632166200065,0.34490793497596817,0.3598602867552975,0.3735834442432953,0.38683022838044906,0.401601434136901,0.4194249049987281,0.44278376212646503,0.48246760296853447,0.938514366330834,0.9777894736842105,0.40629745245365745,0.0,0.9682849604221636,50,1163,1657,772030,no_split,wide,individual,1,0.4670217037200928
1,1.0,0.41495723913428856,0.33333248297867596,0.3551385779196479,0.37201915337424674,0.38747788890499013,0.4043864062418375,0.42205845339288894,0.4422460338287444,0.4688274716747479,0.5084446102359739,0.8664928110525046,0.9587301587301588,0.40629745245365745,0.0,0.9682849604221636,50,1163,1657,772030,no_split,wide,individual,1,0.4670217037200928
0,0.0,0.4630820208877577,0.3743239374692145,0.39465453773968484,0.4111493781386627,0.42787015259931327,0.44473802069668067,0.4653506182345888,0.4882895525841023,0.5209752423308274,0.5758023920901958,1.1948957186922389,0.9865957446808511,0.47375659452890073,0.0,0.98,50,1163,1663,772030,no_split,wide,individual,1,0.46120476722717285
1,1.0,0.484318804236979,0.384283390884975,0.4079181556362336,0.42851282463492696,0.44827012058884347,0.4684137391050013,0.4908309886500764,0.5173650772542011,0.5504521937122411,0.6023721634853345,1.0272989499626106,0.9734736842105263,0.47375659452890073,0.0,0.98,50,1163,1663,772030,no_split,wide,individual,1,0.46120476722717285
0,0.0,0.5155197647426021,0.40199509023105306,0.4284430774290691,0.45092571688149524,0.47232204981643544,0.49522906813680895,0.5199242932498296,0.5483014422448105,0.5916668156547888,0.6573712231502402,1.412748185095546,0.9731182795698925,0.5244871822448656,0.0,0.9630026809651474,50,1163,1761,772030,no_split,wide,individual,1,0.4613971710205078
1,1.0,0.5334066456428389,0.4100463728206297,0.44083263680524926,0.4659261822383539,0.48972698438935974,0.513925009686031,0.5415261508584123,0.5725255206134364,0.6142521190413439,0.6805528026952951,1.4063045494882749,0.9529411764705882,0.5244871822448656,0.0,0.9630026809651474,50,1163,1761,772030,no_split,wide,individual,1,0.4613971710205078
0,0.0,0.4485150723857441,0.34709679998569487,0.37066129386325897,0.39127905892308795,0.4099343992988197,0.4296866108427297,0.45186726925394743,0.4792698795297724,0.513877723411172,0.5735528852852909,1.41821296371893,0.9521465968586388,0.4525737971929227,0.0,0.9416230366492147,50,1163,1768,772030,no_split,wide,individual,1,0.4621005058288574
1,1.0,0.45663252200010124,0.35030852765464027,0.37648150216973897,0.39826538392433986,0.41773329331362846,0.4377949838145767,0.4617122750056621,0.4897339174317576,0.526140178173474,0.5873363405664276,1.214022248678794,0.9310994764397906,0.4525737971929227,0.0,0.9416230366492147,50,1163,1768,772030,no_split,wide,individual,1,0.4621005058288574
0,0.0,0.37796547514796236,0.30377878003080966,0.32277397775817596,0.33762021476401016,0.3521348307709633,0.36611611158117446,0.38161900356204165,0.400534199044036,0.42565711937356837,0.4667981906606241,0.8266510151826628,0.9630851063829787,0.3824066517270275,0.0,0.9524468085106383,50,1163,1813,772030,no_split,wide,individual,1,0.46770811080932617
1,1.0,0.38684782830609254,0.3063708608887301,0.3279711747339677,0.3437920287531668,0.35936754620776273,0.375596880770411,0.39279602897992844,0.4124548274414033,0.43790380908405596,0.4826125801608402,0.9200938641111459,0.9418085106382978,0.3824066517270275,0.0,0.9524468085106383,50,1163,1813,772030,no_split,wide,individual,1,0.46770811080932617
0,0.0,0.3873014729985362,0.3108933682575118,0.33050705123087865,0.3465199770299807,0.3605441915861186,0.374656032794778,0.3898382335426534,0.40954478989771026,0.4365508697218368,0.48018398352693503,0.9935775530054313,0.9825263157894737,0.39391549311514923,0.0,0.9783202099737532,50,1163,1821,772030,no_split,wide,individual,1,0.4615437984466553
1,1.0,0.40049488485418844,0.3180626613748778,0.3385816946251092,0.35445034782496043,0.37096562137032335,0.38748014499961536,0.40662445013754756,0.4278875516131306,0.4545562381617685,0.5002831145887233,0.9677196137489871,0.9741361256544503,0.39391549311514923,0.0,0.9783202099737532,50,1163,1821,772030,no_split,wide,individual,1,0.4615437984466553
0,0.0,0.4444772990418249,0.3531793984434327,0.37653934189979227,0.3949028338248579,0.4120485571424833,0.4305824998583129,0.4501801506293181,0.4735640117131787,0.5043043535576074,0.5512829973439175,1.1586063378308482,0.9850261780104712,0.44740160662858053,0.0,0.9836170212765958,50,1163,275,772030,no_split,wide,individual,1,0.4641106128692627
1,1.0,0.4504207566235552,0.35666911265614987,0.3792392760008918,0.3990121711628787,0.4181634963273578,0.4373529779935147,0.45848687742192895,0.48047218547950454,0.5125836996068702,0.5628044436998579,1.0160261021889752,0.9821621621621621,0.44740160662858053,0.0,0.9836170212765958,50,1163,275,772030,no_split,wide,individual,1,0.4641106128692627
0,0.0,0.3805234437994687,0.3068529472595877,0.32293878951176885,0.3371546383161812,0.350630920640952,0.3644531362347363,0.38170144575001314,0.40126131138287846,0.42972998752143027,0.47204713161203565,1.102320000174182,0.9796808510638297,0.3856415103009994,0.0,0.9727851458885942,50,1163,3286,772030,no_split,wide,individual,1,0.4643697738647461
1,1.0,0.39073249708559077,0.3108713622233366,0.3302328974075099,0.3457722468711449,0.3611034022137114,0.3772495060251765,0.39523942796179623,0.4169003307381597,0.4444536106436945,0.4872019705115769,0.9124757948029218,0.965925925925926,0.3856415103009994,0.0,0.9727851458885942,50,1163,3286,772030,no_split,wide,individual,1,0.4643697738647461
0,0.0,0.45632838781308727,0.36141853499213716,0.3845064920662104,0.4038112316146434,0.42153324227828803,0.4399067164450532,0.4607152897951346,0.48660548391806224,0.5186222617452101,0.57112558245881,1.0392308748129901,0.9856084656084656,0.46464671127074647,0.0,0.9783641160949869,50,1163,3292,772030,no_split,wide,individual,1,0.4628748893737793
1,1.0,0.4729212540786286,0.37111587848497046,0.39818024097165844,0.41989634246318014,0.4387172793651753,0.45969378915472703,0.48204803418683434,0.5085153730216303,0.5410768694463624,0.5895946844306875,1.3173363334171981,0.9711578947368421,0.46464671127074647,0.0,0.9783641160949869,50,1163,3292,772030,no_split,wide,individual,1,0.4628748893737793
0,0.0,0.4491746426255969,0.3672308989810196,0.3885983029611556,0.40636952235345913,0.4227494736365265,0.43825380681499887,0.4554841936523222,0.477244254734086,0.5034351557369536,0.5447475008796635,0.996968683264455,0.9882105263157894,0.45424728815195925,0.0,0.9855643044619422,50,1163,337788,772030,no_split,wide,individual,1,0.46297359466552734
1,1.0,0.45929337532478043,0.3739527267842516,0.39655475893561704,0.41484129873589476,0.43209821667315257,0.4494379759725778,0.46782451738516534,0.489199649534306,0.5157502582756964,0.5574824770587755,0.9016673657799626,0.9829319371727748,0.45424728815195925,0.0,0.9855643044619422,50,1163,337788,772030,no_split,wide,individual,1,0.46297359466552734
0,0.0,0.4090255762395576,0.3262163715959644,0.34441318900407636,0.359957413617866,0.3740081197757168,0.3903741489596009,0.40975470388874735,0.4319954316636778,0.4633872284683235,0.5152587915439858,0.8952189072037353,0.9838502673796792,0.4194430183094372,0.0,0.9731720430107527,50,1163,3487,772030,no_split,wide,individual,1,0.4627211093902588
1,1.0,0.42997308137466683,0.3334553179743886,0.35662666303743557,0.37610369264297916,0.3950923333945199,0.41442715178784173,0.4353986420079402,0.46165838335948856,0.49552840885942573,0.545498463799083,0.9371115116215052,0.9623783783783784,0.4194430183094372,0.0,0.9731720430107527,50,1163,3487,772030,no_split,wide,individual,1,0.4627211093902588
0,0.0,0.40781921110739505,0.3436784941898306,0.36126726120902264,0.37599390602821975,0.3884122374137272,0.40121911042332703,0.41451427056892143,0.43032705310885455,0.44949184361403827,0.4794112554176842,0.730135433349375,0.9848167539267015,0.4128620636437881,0.0,0.978994708994709,50,1163,3580,772030,no_split,wide,individual,1,0.4691579341888428
1,1.0,0.41801278468363334,0.35028695037967883,0.3681363474414297,0.38393771103913654,0.3976130335099007,0.41130826642990814,0.4256183141164895,0.44163517212267855,0.4624970754545268,0.495125757020187,0.855250584281473,0.973048128342246,0.4128620636437881,0.0,0.978994708994709,50,1163,3580,772030,no_split,wide,individual,1,0.4691579341888428
0,0.0,0.47284052734992316,0.371180282423983,0.3952762921826115,0.4159686043954243,0.4350965052573524,0.4546733863906265,0.4762275249244727,0.5029018451222905,0.5384316847423133,0.5972748435070874,1.1980684864947038,0.9607692307692308,0.4817454912093091,0.0,0.9411602209944752,50,1163,3625,772030,no_split,wide,individual,1,0.4627535343170166
1,1.0,0.490749399111577,0.3784884748660396,0.409600280362394,0.43236460788243286,0.4536257634582232,0.4754083363857778,0.4991488291124081,0.5279511360652447,0.5638896051682708,0.6227960318342568,1.156046719091435,0.9213333333333333,0.4817454912093091,0.0,0.9411602209944752,50,1163,3625,772030,no_split,wide,individual,1,0.4627535343170166
0,0.0,0.5466971745212654,0.43471022399475034,0.4644623946304636,0.4876914585262111,0.5092799988812485,0.5313779635509998,0.5560758493344731,0.5834315982791088,0.6211246264669299,0.677559916259066,1.2074294121850042,0.992565445026178,0.5535174949920998,0.0,0.9895538057742782,50,1163,3754,772030,no_split,wide,individual,1,0.4772834777832031
1,1.0,0.5603737118864647,0.44299673442430626,0.4750175333622055,0.5001641098735375,0.5245167878165522,0.5482395246313332,0.5718819348177634,0.6007082503792387,0.6383577399656034,0.6919049639474202,1.238639103769273,0.9865263157894737,0.5535174949920998,0.0,0.9895538057742782,50,1163,3754,772030,no_split,wide,individual,1,0.4772834777832031
0,0.0,0.4163290586896193,0.33895558582348584,0.3591744793353723,0.3743095790741652,0.3888570284376736,0.40344925078162996,0.42000089213470265,0.4403360672548008,0.4677663344610664,0.5080183979565154,0.944026610999847,0.9734391534391534,0.42064866012838903,0.0,0.9669656992084432,50,1163,3910,772030,no_split,wide,individual,1,0.47773170471191406
1,1.0,0.42494552682274417,0.34245905793858294,0.36316246164303123,0.38006975947105076,0.39593756018751053,0.413250295218453,0.4308794565781709,0.45239627593904785,0.4784405814250513,0.5215308697735049,0.9801279468633284,0.9605263157894737,0.42064866012838903,0.0,0.9669656992084432,50,1163,3910,772030,no_split,wide,individual,1,0.47773170471191406
0,0.0,0.4043371177449769,0.33713853959305656,0.3522615265934031,0.36473726033544446,0.37753613342083314,0.3909046248214704,0.40656830988810166,0.4255499338098717,0.44901083696875776,0.48830704256294927,0.7925654749499186,0.982421052631579,0.40958112425871396,0.0,0.974353562005277,50,1163,4222,772030,no_split,wide,individual,1,0.4789297580718994
1,1.0,0.41485287683866134,0.3464918385386878,0.3631028879131583,0.37773395659663134,0.39120115637881325,0.4052511613567328,0.42000288999479485,0.43733879801958125,0.46038878148370455,0.4953225051605711,0.9452803359278591,0.9662433862433862,0.40958112425871396,0.0,0.974353562005277,50,1163,4222,772030,no_split,wide,individual,1,0.4789297580718994
0,0.0,0.45342412867075105,0.34559630747487596,0.3691749526532808,0.3900591482889511,0.4090316924070951,0.42917572937931325,0.45255682187517887,0.48121400379285767,0.5215090655431212,0.5922101964738992,1.3794509717179408,0.9503703703703704,0.4637812709830929,0.0,0.9255026455026455,50,1163,4264,772030,no_split,wide,individual,1,0.4826805591583252
1,1.0,0.47413841329543466,0.35919890627940587,0.38706319290167557,0.4099018945989168,0.43144061749490825,0.45467947591854097,0.4798643664968502,0.5092931143388132,0.549038437915392,0.6146923728987245,1.5202492754943773,0.9006349206349207,0.4637812709830929,0.0,0.9255026455026455,50,1163,4264,772030,no_split,wide,individual,1,0.4826805591583252
0,0.0,0.4312709046462542,0.3689855475929504,0.38479831291348016,0.3973344364206762,0.40911139542240343,0.42100734737146794,0.434396358544053,0.45044669984309094,0.4716248150353377,0.5057985953359727,0.9085707851968637,0.9827659574468085,0.43654400035933616,0.0,0.9782933333333333,50,1163,5281,772030,no_split,wide,individual,1,0.4860193729400635
1,1.0,0.4418452944452153,0.3739478579265468,0.3913613741521024,0.4052439630621309,0.41892560068236173,0.43180792163120807,0.446100462892448,0.46420215723608865,0.48712310822293836,0.5217046976014514,0.9521333644673217,0.9737967914438502,0.43654400035933616,0.0,0.9782933333333333,50,1163,5281,772030,no_split,wide,individual,1,0.4860193729400635
0,0.0,0.4617630761772191,0.3731008391719514,0.39381924739427027,0.41077052680391846,0.42862514905389054,0.44639330211231687,0.46612251341794925,0.4893804341997356,0.5198016049741314,0.5712618730501873,1.2923660556230372,0.993015873015873,0.4710128247505217,0.0,0.98784,50,1163,5332,772030,no_split,wide,individual,1,0.48216676712036133
1,1.0,0.48041176281694203,0.38037748533837673,0.40670558265904627,0.42697727077107434,0.44671094419766216,0.46747383560092653,0.48815210668006476,0.513539678569746,0.5449676709005388,0.5978737611064475,1.0569997251910255,0.9825806451612903,0.4710128247505217,0.0,0.98784,50,1163,5332,772030,no_split,wide,individual,1,0.48216676712036133
0,0.0,0.44738469348635473,0.36307229110595834,0.3846514275316472,0.40048774707889834,0.4165132131248826,0.43363782796339123,0.45118469002546885,0.47266782909587907,0.5001362801657948,0.5489749461179632,0.9702183019841596,0.9774736842105263,0.45758963638656136,0.0,0.9612664907651715,50,1163,5575,772030,no_split,wide,individual,1,0.487962007522583
1,1.0,0.46784857369364746,0.37105065853120084,0.39556090254524756,0.4153780195258265,0.43501525145840453,0.45430358527914283,0.47455925570438845,0.5008035856543982,0.5329532103865511,0.5837063274760604,1.052531835004731,0.944973544973545,0.45758963638656136,0.0,0.9612664907651715,50,1163,5575,772030,no_split,wide,individual,1,0.487962007522583
0,0.0,0.4476555886791958,0.36085938707014253,0.38105256244842134,0.39734289919010524,0.4131014576836393,0.4303802791320236,0.44949802741149125,0.47289794754826103,0.5034560547445289,0.5566201029440141,0.9591160654912165,0.9604371584699454,0.4535098277087012,0.0,0.953800539083558,50,1163,5731,772030,no_split,wide,individual,1,0.48920416831970215
1,1.0,0.45920836889167704,0.3669492746464539,0.3887847690279185,0.40709168879227375,0.4239841485390948,0.4428055899820315,0.4638648845504921,0.48804958798530695,0.520252095842218,0.5714531141100592,1.1237321303865702,0.9473404255319149,0.4535098277087012,0.0,0.953800539083558,50,1163,5731,772030,no_split,wide,individual,1,0.48920416831970215
0,0.0,0.4260537151192438,0.35004574820065726,0.37097599141987636,0.38774963861949785,0.40249363836339686,0.41750681908907694,0.43369039238350243,0.4518873933140832,0.47425377839820615,0.5102192245652727,0.9514363160356181,0.9906382978723405,0.4393952977358423,0.0,0.976657824933687,50,1163,5761,772030,no_split,wide,individual,1,0.49154090881347656
1,1.0,0.45266628996822617,0.36480174731683934,0.389310820943766,0.40881172302432206,0.4275261989696681,0.44452077576631455,0.46287741007065397,0.48457847351982053,0.5103390355677222,0.5504229745606973,0.9845749658621635,0.9627513227513228,0.4393952977358423,0.0,0.976657824933687,50,1163,5761,772030,no_split,wide,individual,1,0.49154090881347656
0,0.0,0.4310971721075916,0.3340725938114906,0.3579221276317271,0.37713585627274077,0.39549689295973933,0.41384498887973376,0.43426780400861387,0.4596709952138792,0.4933580951217811,0.5499930833155496,1.3027378017649596,0.9251041666666666,0.433542579258457,0.0,0.9175,50,1163,5803,772030,no_split,wide,individual,1,0.49023008346557617
1,1.0,0.43598798640932246,0.3373720450889779,0.36205874187104053,0.38189138066472295,0.40060217515272223,0.4193132995881662,0.4407976586234182,0.4660098971179061,0.5007144009130385,0.5552298963620917,1.1065380105917746,0.9098958333333333,0.433542579258457,0.0,0.9175,50,1163,5803,772030,no_split,wide,individual,1,0.49023008346557617
0,0.0,0.5035526691257459,0.3878820567104676,0.41512831816328033,0.43958685216127436,0.46021281560957733,0.4834667247828205,0.5079442842433439,0.5386797481210004,0.5790074802325393,0.6475502307619303,1.3192947297765627,0.9744791666666667,0.5124803577058457,0.0,0.9642408376963351,50,1163,5815,772030,no_split,wide,individual,1,0.48627471923828125
1,1.0,0.5215020219552096,0.39839978811537674,0.4296186412572988,0.45547694361927477,0.4796714903447326,0.5048061746506789,0.531021091345697,0.5622164827037222,0.602743498703621,0.6632801472559129,1.476892538573441,0.9538947368421052,0.5124803577058457,0.0,0.9642408376963351,50,1163,5815,772030,no_split,wide,individual,1,0.48627471923828125
0,0.0,0.4133853673472376,0.3475317414863355,0.36360212354693133,0.37600017709855743,0.3887355736958968,0.4017529537380802,0.41591572698387114,0.43456493902609766,0.4573023162641785,0.4930638017906503,0.9496229884449752,0.992421052631579,0.4234190754787812,0.0,0.9860846560846561,50,1163,6055,772030,no_split,wide,individual,1,0.49893856048583984
1,1.0,0.4335595251861924,0.35747237512649843,0.37683498279766114,0.3924837345803921,0.40757696365362883,0.4243726408775679,0.44098050365942654,0.46082598188629015,0.48502463088926845,0.521467581394529,0.7753846698597792,0.9796808510638297,0.4234190754787812,0.0,0.9860846560846561,50,1163,6055,772030,no_split,wide,individual,1,0.49893856048583984
0,0.0,0.461200623912888,0.3558381556708349,0.38107555626586476,0.40358321814514686,0.42192300231971064,0.44261821695845416,0.46494515669314823,0.4916044818554627,0.5285455946944272,0.5883711226065416,1.2531745744964546,0.9681081081081081,0.46880141478786175,0.0,0.9575871313672922,50,1163,6109,772030,no_split,wide,individual,1,0.49206972122192383
1,1.0,0.4762809164467455,0.362713782502735,0.39284070876838534,0.4157356933467347,0.43726445792865026,0.45899244355457475,0.4833282375431101,0.5127146587604455,0.5481827699275338,0.6112615978492533,1.160883603401697,0.9472340425531914,0.46880141478786175,0.0,0.9575871313672922,50,1163,6109,772030,no_split,wide,individual,1,0.49206972122192383
0,0.0,0.38945876869335744,0.32788419814644126,0.342258953844789,0.35447342129001436,0.3665213215532849,0.3789920538960628,0.3922309301336228,0.4077711600527908,0.4291743027450654,0.4637176042070304,1.0113359277219922,0.9903664921465969,0.4013461862636518,0.0,0.976710182767624,50,1163,6214,772030,no_split,wide,individual,1,0.4960908889770508
1,1.0,0.4131716902007677,0.336002955459976,0.3553759954434223,0.37204710089620163,0.3871849999192332,0.40187548086913166,0.4186677516160378,0.4390311724097901,0.46486573227756506,0.5045707570449904,0.8205284445869898,0.963125,0.4013461862636518,0.0,0.976710182767624,50,1163,6214,772030,no_split,wide,individual,1,0.4960908889770508
0,0.0,0.45417884696778654,0.35629294032141934,0.383889939871862,0.4045075234387471,0.42304273245139146,0.4422112542887572,0.4622553796881174,0.4869456594607353,0.515862855749902,0.566087834480184,1.0510494845512375,0.9593650793650793,0.4593388500130839,0.0,0.9507936507936507,50,1163,6253,772030,no_split,wide,individual,1,0.48936963081359863
1,1.0,0.4644988530583813,0.36284935790710715,0.39116653267528817,0.41347253819945373,0.43367186205059244,0.45417149720708383,0.4756926725601548,0.4997614017587733,0.5299986393935907,0.578368566225391,1.00172972211932,0.9422222222222222,0.4593388500130839,0.0,0.9507936507936507,50,1163,6253,772030,no_split,wide,individual,1,0.48936963081359863
0,0.0,0.45491732574955934,0.37344024926211994,0.39561636382672977,0.4128837558791813,0.4283151358486113,0.4445818045555675,0.46149331199117366,0.48159915950987753,0.5079355702121635,0.5509195977540052,0.8960959428158273,0.9846315789473684,0.4591302434869028,0.0,0.9775328083989502,50,1163,6262,772030,no_split,wide,individual,1,0.49103856086730957
1,1.0,0.4633211040633177,0.3778791184122345,0.40111055409011676,0.419796062598797,0.436687557314322,0.4533617289304944,0.4714819421680928,0.4929990945461975,0.5194924447080533,0.5598438655324441,1.0021122062929613,0.9704712041884817,0.4591302434869028,0.0,0.9775328083989502,50,1163,6262,772030,no_split,wide,individual,1,0.49103856086730957
0,0.0,0.4913338527055402,0.3962542441786857,0.42003572406269735,0.4394702448425013,0.457670152636573,0.47727637982286963,0.49736325948706905,0.5209869445212318,0.5525780619679195,0.6056286452775896,1.061968443416907,0.9928421052631579,0.5030936475907071,0.0,0.9861052631578947,50,1163,6361,772030,no_split,wide,individual,1,0.4893381595611572
1,1.0,0.514853442475874,0.4128742914330691,0.4401392411204221,0.462215132941492,0.4824692367415102,0.5033743610278143,0.5248594963493062,0.5504163451249262,0.5833126775252109,0.6334633377503088,1.1120811318676553,0.9793684210526316,0.5030936475907071,0.0,0.9861052631578947,50,1163,6361,772030,no_split,wide,individual,1,0.4893381595611572
0,0.0,0.40988377921037933,0.34142582737038163,0.3605324383723121,0.37479285625220254,0.3880420679934177,0.4009999583304274,0.4156060273781255,0.4324874137029183,0.45380092118504356,0.4886623153790686,0.8621011889042939,0.9852631578947368,0.41471586908160984,0.0,0.9799472295514512,50,1163,6427,772030,no_split,wide,individual,1,0.502100944519043
1,1.0,0.41957352556591576,0.34759030280443265,0.36715055484623516,0.3825822286704891,0.3960549914900637,0.4106960812950059,0.4264117270841164,0.4442921854829833,0.46714695224227853,0.5024514754175436,0.7923833582775154,0.9746031746031746,0.41471586908160984,0.0,0.9799472295514512,50,1163,6427,772030,no_split,wide,individual,1,0.502100944519043
0,0.0,0.45959140418339756,0.37938095951290046,0.40063067281669507,0.4181054485005964,0.43315167298120344,0.4493147696858943,0.46702615606293535,0.48615820286660855,0.5113006407834666,0.5521334581181201,0.9580907006245645,0.9720212765957447,0.4642929321103801,0.0,0.9668266666666666,50,1163,6583,772030,no_split,wide,individual,1,0.49387145042419434
1,1.0,0.46901960189793473,0.38534534511686835,0.40787580238672705,0.4257515883388433,0.441635583739439,0.45837734577227995,0.47580770363437364,0.49663686204286867,0.5234207206656047,0.5675568391579501,0.968687644369965,0.9616042780748663,0.4642929321103801,0.0,0.9668266666666666,50,1163,6583,772030,no_split,wide,individual,1,0.49387145042419434
0,0.0,0.4419372945157988,0.3548585820783156,0.37904426017017,0.3970794013662765,0.4143753115997794,0.4306361917598692,0.4472322348990932,0.46772140989649585,0.4960559591617067,0.5411341733696368,1.0255206356424647,0.9723809523809523,0.4507206305992812,0.0,0.9596791443850268,50,1163,6634,772030,no_split,wide,individual,1,0.4784853458404541
1,1.0,0.4596938766521361,0.364498864708988,0.3898074718797558,0.4099893741911761,0.4280664260571662,0.4477000398857921,0.46692208305501126,0.4908186057500169,0.5220036059696702,0.5698013102187826,0.9646376157340832,0.9467027027027027,0.4507206305992812,0.0,0.9596791443850268,50,1163,6634,772030,no_split,wide,individual,1,0.4784853458404541
0,0.0,0.4544087454758708,0.376583336563462,0.3972646256639927,0.413702440415429,0.42855363934112245,0.4434525383607736,0.4604160468129952,0.47868358387330334,0.5048240470946466,0.5449586729461583,0.9070411471411252,0.9819791666666666,0.460604624258555,0.0,0.9741514360313316,50,1163,6844,772030,no_split,wide,individual,1,0.4762699604034424
1,1.0,0.46683294219716936,0.3856664140904685,0.4083683155581843,0.42575535803805614,0.44143338783284264,0.4579021525706158,0.4751325457624171,0.4944986783755784,0.5205667776097919,0.559243385434801,0.9480875592381135,0.966282722513089,0.460604624258555,0.0,0.9741514360313316,50,1163,6844,772030,no_split,wide,individual,1,0.4762699604034424
0,0.0,0.4408143357120428,0.3483963855691836,0.3718928640872633,0.39122943062314774,0.4079262382004728,0.4258759329209256,0.4449281048069108,0.46742419411995456,0.4980488820278348,0.5489816519296629,1.2631030865562645,0.986,0.45957566201461303,0.0,0.959109947643979,50,1163,7624,772030,no_split,wide,individual,1,0.4755535125732422
1,1.0,0.4781415578348647,0.3721048438933445,0.4021098890163274,0.4260907814349147,0.44635512169404734,0.46731296783447346,0.48948494308061824,0.5144324225296502,0.5466873802946969,0.5965587723829542,1.0859905551074194,0.9325,0.45957566201461303,0.0,0.959109947643979,50,1163,7624,772030,no_split,wide,individual,1,0.4755535125732422
0,0.0,0.41242970574758964,0.3368119869347115,0.3550860605993235,0.3700780824795362,0.3847314079153001,0.40008931898850253,0.41635502333854657,0.4349976433388035,0.4609599617825789,0.5050692432314564,0.9633750373935654,0.9745833333333334,0.41813150997187115,0.0,0.9651832460732984,50,1163,7756,772030,no_split,wide,individual,1,0.4780232906341553
1,1.0,0.4238933331879871,0.3410554022251865,0.3635483938320908,0.38070110251979083,0.3964623488062761,0.4128578401045292,0.4308765911236326,0.4511604466774381,0.4777759751646733,0.5205431918832834,0.8501514775923775,0.9556842105263158,0.41813150997187115,0.0,0.9651832460732984,50,1163,7756,772030,no_split,wide,individual,1,0.4780232906341553
0,0.0,0.4207194806762378,0.32819751223527904,0.3537959336645469,0.37364400081619226,0.39171147355123054,0.4090245736133839,0.4274046967624524,0.449467914941135,0.4776965235447287,0.5252160117272107,1.1100581049645837,0.9744680851063829,0.4324029784993578,0.0,0.9550670241286864,50,1163,7768,772030,no_split,wide,individual,1,0.47547364234924316
1,1.0,0.44427593844933927,0.3428308801536144,0.37037899948143355,0.3926330202173595,0.41141631558295527,0.4314948426743795,0.4532278870940484,0.4787067502787144,0.5122491220534657,0.56148188733284,1.044711615569963,0.9353513513513514,0.4324029784993578,0.0,0.9550670241286864,50,1163,7768,772030,no_split,wide,individual,1,0.47547364234924316
0,0.0,0.4063716234590723,0.3142965685793975,0.33795546501617146,0.35598141790045806,0.37242135228726075,0.3902871530762041,0.40948656119561144,0.43351614842433633,0.4638982808509185,0.5141988455823795,1.01085090520392,0.9500523560209424,0.4121191535482384,0.0,0.935759162303665,50,1163,7807,772030,no_split,wide,individual,1,0.47063684463500977
1,1.0,0.41786668363740453,0.3221968594655128,0.3466032958762572,0.36622094401783367,0.3844634315930423,0.40339874457312663,0.42435001613946616,0.4478591301386032,0.4807004499120747,0.5327391244590127,1.0463579691283091,0.9214659685863874,0.4121191535482384,0.0,0.935759162303665,50,1163,7807,772030,no_split,wide,individual,1,0.47063684463500977
0,0.0,0.39987031136546025,0.3230236018503819,0.33997506443173636,0.3545505276072509,0.36840340955516954,0.3837638570136306,0.4011094857979454,0.42141778338886904,0.4511578778567663,0.4972710858168002,1.1609497759682785,0.9759375,0.40499021447723177,0.0,0.9683464566929134,50,1163,7813,772030,no_split,wide,individual,1,0.4693722724914551
1,1.0,0.4101913858923647,0.32766652267402946,0.347089844189348,0.3631783425422865,0.379361870242893,0.39604897630068825,0.41451935544194146,0.43602646402704587,0.46412735518510617,0.5096476662793108,1.0634852905009533,0.9606349206349206,0.40499021447723177,0.0,0.9683464566929134,50,1163,7813,772030,no_split,wide,individual,1,0.4693722724914551
0,0.0,0.4132570380458776,0.35167016178738286,0.3696861023489126,0.3835274952491251,0.3950882735731393,0.40633586791318993,0.41911225645449524,0.4331564439344767,0.4531474244547214,0.48329018122570183,0.7245830685538515,0.9842931937172775,0.41708313541126707,0.0,0.9783769633507854,50,1163,7828,772030,no_split,wide,individual,1,0.4714488983154297
1,1.0,0.42090923277665654,0.3553795366070431,0.3747145594081791,0.38922616730124504,0.4014091167625927,0.41382633318313244,0.42774964772714236,0.4439060185883156,0.46348259368779343,0.4943643948907245,0.692606613647911,0.9724607329842931,0.41708313541126707,0.0,0.9783769633507854,50,1163,7828,772030,no_split,wide,individual,1,0.4714488983154297
0,0.0,0.5601542044466975,0.40509390695265485,0.4360856221410333,0.46529144306996806,0.49367985711776935,0.5245985357631919,0.5603529288985493,0.6040640066931606,0.6624968261945372,0.7574052435658111,1.5366020508991396,0.9717460317460317,0.5657053791314584,0.0,0.9642553191489361,50,1163,7840,772030,no_split,wide,individual,1,0.47000956535339355
1,1.0,0.5713159246684626,0.4154676576597809,0.451150481048643,0.48076501494699664,0.5112819058422092,0.5427119914862141,0.5765438651986918,0.6197264440480217,0.6733099806890646,0.7580446291619403,1.50798315918659,0.9566844919786096,0.5657053791314584,0.0,0.9642553191489361,50,1163,7840,772030,no_split,wide,individual,1,0.47000956535339355
0,0.0,0.45475380585698744,0.369500406921012,0.39144553779053626,0.4084840701622529,0.42509905430903305,0.44329478871432826,0.4623165929798111,0.4838972875138862,0.5120993350387602,0.5569604556297537,0.8351846799652666,0.9966492146596858,0.46353988632553395,0.0,0.9942931937172775,50,1163,7924,772030,no_split,wide,individual,1,0.4702439308166504
1,1.0,0.4723259667940805,0.3822603452338013,0.4074034468912499,0.4268824690174451,0.4444390093378094,0.46432367516940803,0.48303304598329966,0.5040994321111694,0.5304558828107914,0.5722328563695754,0.9548464832697016,0.9919371727748691,0.46353988632553395,0.0,0.9942931937172775,50,1163,7924,772030,no_split,wide,individual,1,0.4702439308166504
0,0.0,0.4476920204057754,0.37045312989617235,0.3903908006045355,0.40653267573008206,0.4217362848212568,0.4374223655942121,0.45441160326088886,0.47401853827968865,0.49865529790298996,0.5368435217870345,0.8974265628142798,0.9920634920634921,0.4565890774687704,0.0,0.9864721485411141,50,1163,7939,772030,no_split,wide,individual,1,0.46959543228149414
1,1.0,0.4655334593033772,0.3792553995094437,0.4026590339961488,0.42028641024887625,0.43755500016466026,0.45478780069439806,0.47477864314534285,0.49554288374894045,0.5235192719379501,0.5664599581717349,0.9129447566284041,0.9808510638297873,0.4565890774687704,0.0,0.9864721485411141,50,1163,7939,772030,no_split,wide,individual,1,0.46959543228149414
0,0.0,0.4522486618693965,0.35179875392552773,0.37865933178043115,0.39642845068797017,0.41446586084357606,0.4342098446391133,0.4557892652907588,0.4813042150710742,0.5157605101045727,0.5775071102987444,1.1708726429711007,0.9597752808988764,0.46273719950230424,0.0,0.9390633608815427,50,1163,8026,772030,no_split,wide,individual,1,0.46562933921813965
1,1.0,0.4728288735491019,0.36277664538963306,0.39190623159177596,0.4133859115006428,0.43461589873829504,0.4569274936580595,0.48087137976058897,0.5079935979541538,0.5426848272360995,0.6030104439080384,1.2399157623212622,0.9191351351351351,0.46273719950230424,0.0,0.9390633608815427,50,1163,8026,772030,no_split,wide,individual,1,0.46562933921813965
0,0.0,0.47009152957846434,0.37083924755223646,0.39452620779151537,0.413378637979481,0.43154147537771703,0.4515088752000047,0.4735209278001845,0.49955308331706033,0.5358518054122592,0.5928376689255673,1.2378353219589764,0.9778947368421053,0.47468736038486176,0.0,0.9742105263157895,50,1163,808,772030,no_split,wide,individual,1,0.46895861625671387
1,1.0,0.47928319119125923,0.3762343969875919,0.4022478831535351,0.4225096360565087,0.4415281572159195,0.46258979529902833,0.4852835176312004,0.5115004438915177,0.5460280458983866,0.5996287350377623,1.263658318432539,0.9705263157894737,0.47468736038486176,0.0,0.9742105263157895,50,1163,808,772030,no_split,wide,individual,1,0.46895861625671387
0,0.0,0.45309394176831636,0.3446577645764279,0.3713896641866016,0.39312637189171024,0.4137791908078338,0.4347286762547325,0.4580164148527453,0.4849591339318426,0.52274556991692,0.5882453656129832,1.1953305069607154,0.9343455497382199,0.455658290885606,0.0,0.9264751958224543,50,1163,8311,772030,no_split,wide,individual,1,0.4712378978729248
1,1.0,0.4582092840179097,0.3477403913967572,0.37588898844599605,0.39762421782411705,0.418997243010631,0.44024783787261923,0.4638937604906642,0.49100831658202804,0.5279554753986855,0.5899975707601876,1.3062550944948492,0.9186458333333334,0.455658290885606,0.0,0.9264751958224543,50,1163,8311,772030,no_split,wide,individual,1,0.4712378978729248
0,0.0,0.4588861848438333,0.3741912023684216,0.3958752783749715,0.4125098609781011,0.42783037977464144,0.4435305905611385,0.46325093874495815,0.48492289274098527,0.5138239695325422,0.5621781561271347,1.0419096456493175,0.9688541666666667,0.46475209989296706,0.0,0.9561375661375662,50,1163,833,772030,no_split,wide,individual,1,0.4665036201477051
1,1.0,0.47080723800820184,0.38096514611763765,0.4049354960207205,0.4233315045420242,0.44161569600311745,0.45835961474535447,0.47862622083213385,0.5000642302555445,0.5282890464843738,0.5744877328086064,0.9857772789216248,0.943010752688172,0.46475209989296706,0.0,0.9561375661375662,50,1163,833,772030,no_split,wide,individual,1,0.4665036201477051
0,0.0,0.5589203042122696,0.3859750488808228,0.42058645174146625,0.45062531171636033,0.4810956696772728,0.5152626935493076,0.5553689342722725,0.6039831621370809,0.6736273681496204,0.79086018773567,1.5409473520487993,0.9376086956521739,0.5679086116094648,0.0,0.923027027027027,50,1163,837,772030,no_split,wide,individual,1,0.47104883193969727
1,1.0,0.5768002705400235,0.4010893817354206,0.44024046026254104,0.47185176768406656,0.5072190244952849,0.5422829503316866,0.5815138457853632,0.6282957985378405,0.6903711657986986,0.7993406514704874,1.5464217433752256,0.9086021505376344,0.5679086116094648,0.0,0.923027027027027,50,1163,837,772030,no_split,wide,individual,1,0.47104883193969727
0,0.0,0.38977591075353496,0.3200082139529414,0.3390597951527459,0.35447009251939865,0.3679959535992417,0.38168376669646686,0.39664789163439196,0.4134201454781448,0.4349998394336106,0.4678730021406805,0.7917123898789639,0.9848167539267015,0.3967279732815643,0.0,0.9768947368421053,50,1163,8446,772030,no_split,wide,individual,1,0.476931095123291
1,1.0,0.40375360260883214,0.3263293566516304,0.3481536006684563,0.36479185830475586,0.3801266419795261,0.39510463813507446,0.4110768573761187,0.4306073026231216,0.45527761504608905,0.4922798379848887,0.8455757939212845,0.9688888888888889,0.3967279732815643,0.0,0.9768947368421053,50,1163,8446,772030,no_split,wide,individual,1,0.476931095123291
0,0.0,0.4256979046103519,0.34470661016637083,0.36629841014595776,0.38264891219343117,0.3985819188288214,0.4146081929035104,0.43090183341096494,0.450879998242665,0.47702440764731185,0.5210298318894769,0.9489144172041276,0.9661375661375662,0.4310921847222257,0.0,0.9587234042553191,50,1163,845,772030,no_split,wide,individual,1,0.4773530960083008
1,1.0,0.43654415766952065,0.3493048299858254,0.37204991092754147,0.39045515750131604,0.4069328372783426,0.4238480404148941,0.4427632458755643,0.4661184656330531,0.495254478462295,0.5381557267314071,0.927137206765077,0.9512299465240641,0.4310921847222257,0.0,0.9587234042553191,50,1163,845,772030,no_split,wide,individual,1,0.4773530960083008
0,0.0,0.48823294931494937,0.39286790890129214,0.4178157144062088,0.4362071215952661,0.45386363041148237,0.4722841190934147,0.49217824205460015,0.5165963158715583,0.5498378954259362,0.6014547558086907,1.078768189463846,0.9631413612565445,0.4913220308569939,0.0,0.9555263157894737,50,1163,8521,772030,no_split,wide,individual,1,0.4818425178527832
1,1.0,0.4944438010926053,0.39590206683533896,0.4219180463286815,0.4426760917629095,0.4609062557514315,0.4815235330089113,0.501855033810396,0.526788694770847,0.5595582921850248,0.6097947914538812,1.2289015797217564,0.9478306878306878,0.4913220308569939,0.0,0.9555263157894737,50,1163,8521,772030,no_split,wide,individual,1,0.4818425178527832
0,0.0,0.562219017612966,0.4284140012862532,0.4584419450549173,0.48397024497591035,0.5098271933110339,0.5379051167928519,0.567276127573259,0.6031880787247076,0.6512755997954387,0.7301376848905445,1.4427356429982476,0.9779347826086957,0.564777508081885,0.0,0.9751612903225807,50,1163,8704,772030,no_split,wide,individual,1,0.4808664321899414
1,1.0,0.5672815625833802,0.43109170169943706,0.4635101328561438,0.49136040827671024,0.5186443923256586,0.5455203374087225,0.5755379212282915,0.6108751681398951,0.6569793728254821,0.7287682461221073,1.4282542836517975,0.9724468085106382,0.564777508081885,0.0,0.9751612903225807,50,1163,8704,772030,no_split,wide,individual,1,0.4808664321899414
0,0.0,0.44648086276565735,0.3589836517847412,0.38196977648569935,0.3998902481733412,0.4165596601016928,0.43363055342701096,0.4524457387150992,0.4752014759579597,0.5034688595061672,0.550311475000805,0.9606020713580542,0.9943478260869565,0.454208815132338,0.0,0.9915068493150685,50,1163,8755,772030,no_split,wide,individual,1,0.4828634262084961
1,1.0,0.46206485510730627,0.36999582235235784,0.3925556437877783,0.41356095720113806,0.43204039326781585,0.45103349882867555,0.47236270246231304,0.49520068963413877,0.5245592961247001,0.5692612978658261,0.991419056181513,0.9886187845303868,0.454208815132338,0.0,0.9915068493150685,50,1163,8755,772030,no_split,wide,individual,1,0.4828634262084961
0,0.0,0.45055555325152086,0.36022213487644805,0.3835205375389486,0.4026182455363455,0.4191810837876829,0.43640316988283756,0.4545975327290912,0.47798175593626874,0.5084297422130112,0.5578241035379939,1.0197013816475804,0.9655208333333334,0.45346969929594916,0.0,0.96234375,50,1163,8785,772030,no_split,wide,individual,1,0.48228883743286133
1,1.0,0.45638384534037735,0.3626332963327016,0.3869649575645463,0.4062192511500569,0.4243329422937571,0.4435527895701322,0.46333647530932554,0.48793059192995397,0.5185479725954768,0.5663942304284734,1.1291452485430047,0.9591666666666666,0.45346969929594916,0.0,0.96234375,50,1163,8785,772030,no_split,wide,individual,1,0.48228883743286133
0,0.0,0.41415730451308114,0.32651294984226326,0.3474714494717981,0.36453272383393404,0.38096723956090056,0.3984376035005368,0.41786652454848183,0.44104126767850027,0.4710012149316752,0.5217457535809451,1.1184720838582525,0.9754497354497355,0.42457283648718663,0.0,0.9638196286472148,50,1163,8788,772030,no_split,wide,individual,1,0.48363184928894043
1,1.0,0.4350437702271118,0.3367630197862488,0.3605050486807404,0.3808776490829158,0.4007481059673367,0.41961303951111273,0.44251126154777737,0.46781007159611454,0.5003898199397318,0.5527125070977884,1.0923011052875367,0.9521276595744681,0.42457283648718663,0.0,0.9638196286472148,50,1163,8788,772030,no_split,wide,individual,1,0.48363184928894043
0,0.0,0.47591950533212835,0.36209353194268845,0.38499733203811215,0.40690825878641707,0.42593253400882336,0.44680180748924314,0.47427840465530563,0.5073394646921536,0.5503524434297521,0.6249758239453195,1.320252741734077,0.9625396825396826,0.48353453793580925,0.0,0.9530851063829787,50,1163,916,772030,no_split,wide,individual,1,0.4829254150390625
1,1.0,0.4912310147384599,0.36716928082972744,0.3927769136074997,0.41667392978542195,0.4412632035744192,0.46663395933152596,0.49409317615614917,0.5276918811129784,0.5733122974338918,0.6501834693227222,1.2589272053524432,0.9435294117647058,0.48353453793580925,0.0,0.9530851063829787,50,1163,916,772030,no_split,wide,individual,1,0.4829254150390625
0,0.0,0.41369006591832835,0.33401604183896383,0.35372362882460656,0.369519781925215,0.38421388412361085,0.3993596921940864,0.41566609844621155,0.4360430860892211,0.4633258845316764,0.51105460315081,0.9405128373066809,0.9687368421052631,0.42181225419283586,0.0,0.9544356955380577,50,1163,985,772030,no_split,wide,individual,1,0.4865095615386963
1,1.0,0.4298919179214036,0.3416841571597139,0.36349232652748864,0.38173251909635336,0.39798356116752537,0.41586043331209244,0.4354738576083593,0.4587159928823936,0.48791515696121485,0.5353958380565415,0.9759693272244451,0.9402094240837696,0.42181225419283586,0.0,0.9544356955380577,50,1163,985,772030,no_split,wide,individual,1,0.4865095615386963
0,0.0,0.4447623111511701,0.35676094009424203,0.37702618604226135,0.3939883037515032,0.4100923757003636,0.4265591953788719,0.44509822184376957,0.4693250931893167,0.5006020922361696,0.5535242129412022,1.296665246749122,0.9879024390243902,0.4626263818908172,0.0,0.9664321608040201,50,1163,275,772030,no_split,narrow,individual,1,0.4843719005584717
1,1.0,0.4816011720546909,0.37245465072811723,0.40099658573669494,0.42439138828572914,0.4461587070775685,0.46890616195297385,0.49192672547360367,0.5191329671824191,0.5530617626984591,0.604435044415505,1.0447433042478267,0.9436269430051814,0.4626263818908172,0.0,0.9664321608040201,50,1163,275,772030,no_split,narrow,individual,1,0.4843719005584717
0,0.0,0.4696766351891544,0.37869857894447784,0.4009763404249435,0.4179631330403301,0.4348080147860243,0.4529161912580191,0.47237148956994485,0.4973149326403554,0.5308095357510443,0.5827386130730275,1.3238282726104884,0.9847619047619047,0.4763449856360557,0.0,0.974040404040404,50,1163,808,772030,no_split,narrow,individual,1,0.4841880798339844
1,1.0,0.48387376839868607,0.3888250109455428,0.4134901032180739,0.4332287233783426,0.45235808692117974,0.471689252719683,0.4915603683103445,0.5153966646542106,0.5465349182803588,0.5938756574117993,1.1668246377049518,0.9619354838709677,0.4763449856360557,0.0,0.974040404040404,50,1163,808,772030,no_split,narrow,individual,1,0.4841880798339844
0,0.0,0.4606179934246937,0.37463248389728676,0.399786891971117,0.41772096402563313,0.434477031160732,0.4509370754798183,0.46785156042499026,0.4870903878569726,0.5133218386859401,0.5564978915094744,1.1122999326117438,0.971,0.47248968905245925,0.0,0.9402133333333333,50,1163,833,772030,no_split,narrow,individual,1,0.4779808521270752
1,1.0,0.48605734119847704,0.38826112179192346,0.41611421391639214,0.43688556786455846,0.45624184583999816,0.4759197704382797,0.4966642050950299,0.52095592590512,0.5493950999445072,0.5947035795289068,1.0065688965646242,0.9050285714285714,0.47248968905245925,0.0,0.9402133333333333,50,1163,833,772030,no_split,narrow,individual,1,0.4779808521270752
0,0.0,0.5838887489212086,0.3902787335015503,0.4318047940945466,0.46781624116783804,0.5023836568644492,0.5370952571160873,0.5818046268635152,0.6367368380294762,0.7130320032384577,0.8475995392655494,1.615554172188087,0.9392670157068063,0.5928873859931283,0.0,0.9164361702127659,50,1163,837,772030,no_split,narrow,individual,1,0.479550838470459
1,1.0,0.602177870753867,0.40171997902431145,0.44712095720755823,0.489084471263866,0.5274339237943323,0.5661045272311405,0.6092164591076238,0.6619766956102902,0.7337527836028294,0.8513105324314414,1.6315050719011115,0.8928648648648648,0.5928873859931283,0.0,0.9164361702127659,50,1163,837,772030,no_split,narrow,individual,1,0.479550838470459
0,0.0,0.4254578949529667,0.3467109472340997,0.36874866570782805,0.3846785349413699,0.3998266977067674,0.41505644577837075,0.4315500107782814,0.4494734149318313,0.47256606808521134,0.5144257620158539,1.0852384723795112,0.9719791666666666,0.43662536544655695,0.0,0.9460427807486631,50,1163,845,772030,no_split,narrow,individual,1,0.4825139045715332
1,1.0,0.44840643322001494,0.35799632454472907,0.38255706552273794,0.40298690238383944,0.42042608372770796,0.4381824930461691,0.4570864225496668,0.4788628770643311,0.5063629709623882,0.5509648977598045,1.0116419729102017,0.9186813186813186,0.43662536544655695,0.0,0.9460427807486631,50,1163,845,772030,no_split,narrow,individual,1,0.4825139045715332
0,0.0,0.46851736098085334,0.36062771208485095,0.3832196413816499,0.4021168841710883,0.4209160812542798,0.44097879270279944,0.46615490841719603,0.49698793482128406,0.5376546135070904,0.6118504931220997,1.5593664616572247,0.9804469273743017,0.4873657521329544,0.0,0.9566120218579235,50,1163,916,772030,no_split,narrow,individual,1,0.484691858291626
1,1.0,0.5054077950004736,0.3763986504284287,0.4071711153661945,0.4350238591142504,0.4618013958167082,0.4876121406452626,0.5149198615036016,0.547701946429314,0.5903299709531031,0.6560995939539352,1.4027520494553796,0.9337967914438503,0.4873657521329544,0.0,0.9566120218579235,50,1163,916,772030,no_split,narrow,individual,1,0.484691858291626
0,0.0,0.4165113392467272,0.34245906224933387,0.36102549524354743,0.3758738576063859,0.3891878831445258,0.4031599660982529,0.41909221584292095,0.43714885584753854,0.4627541745354254,0.5063711365767182,1.0556198786499515,0.9662146892655368,0.42918125248965605,0.0,0.9329539295392953,50,1163,985,772030,no_split,narrow,individual,1,0.48627781867980957
1,1.0,0.440861328760481,0.3518316604971567,0.37262613996383054,0.3905103657778284,0.4088887689713046,0.4266343511760209,0.4465841567258777,0.4700326863471498,0.5012631790346299,0.5495080735898498,1.0357080487910928,0.9022916666666667,0.42918125248965605,0.0,0.9329539295392953,50,1163,985,772030,no_split,narrow,individual,1,0.48627781867980957
0,0.0,0.40898375364181416,0.3388715101639925,0.3567720915480931,0.3703783139432352,0.38240302006280147,0.395111958142515,0.40875655280324497,0.426200343154316,0.45015129415989913,0.4944473538282781,1.0627207131155705,0.9806818181818182,0.43050994448278757,0.0,0.9284210526315789,50,1163,1108,772030,no_split,narrow,individual,1,0.48805928230285645
1,1.0,0.44908156011029404,0.35621693051202086,0.38109998321746485,0.40075262510886084,0.41968609577275484,0.4375291878638601,0.4576420328572676,0.4817294673065906,0.5100978649671976,0.5544008551064954,0.9912752324504825,0.8833333333333333,0.43050994448278757,0.0,0.9284210526315789,50,1163,1108,772030,no_split,narrow,individual,1,0.48805928230285645
0,0.0,0.4379718287359757,0.34929365393710177,0.3736717259775985,0.39108494658590365,0.40750295019054456,0.4236462280668206,0.44142267773763383,0.46190512730405087,0.4910525950840832,0.5428990256029811,1.0356522318238077,0.968140703517588,0.4529252329414081,0.0,0.9224078624078624,50,1163,1507,772030,no_split,narrow,individual,1,0.4864485263824463
1,1.0,0.46723161484949005,0.3656623451969597,0.3931622827877344,0.41468020513183407,0.433884278236613,0.4549223601482738,0.47646210737970135,0.5022361884710621,0.5353863729170836,0.5830188761622522,1.2348670451828454,0.8786538461538461,0.4529252329414081,0.0,0.9224078624078624,50,1163,1507,772030,no_split,narrow,individual,1,0.4864485263824463
0,0.0,0.45391493117311454,0.3628625717117072,0.387252232451316,0.4060941797335948,0.423275299033195,0.4409310651869886,0.45970098685315397,0.4820204700678879,0.5100836437118397,0.560322839189215,1.0535415441901428,0.9775268817204301,0.4637302896414211,0.0,0.9650261780104712,50,1163,1538,772030,no_split,narrow,individual,1,0.4870643615722656
1,1.0,0.4730448645144059,0.37241007741244175,0.39872562529165056,0.41977729918990814,0.44009592882891274,0.45982818794837443,0.481667095436207,0.5064369767108741,0.5397539953018663,0.5937549639728948,0.9861619756620005,0.9531632653061225,0.4637302896414211,0.0,0.9650261780104712,50,1163,1538,772030,no_split,narrow,individual,1,0.4870643615722656
0,0.0,0.4684748516762624,0.372537251699582,0.39610935339543024,0.41282842552451565,0.42916648837542426,0.4462562296414415,0.46640320696665094,0.4902784095333906,0.5260391946641165,0.5954013616852742,1.0807078812821282,0.9926595744680851,0.4935880798331391,0.0,0.963224043715847,50,1163,1582,772030,no_split,narrow,individual,1,0.48453831672668457
1,1.0,0.5201121635044471,0.40654814694005237,0.43716303105125454,0.464937523498239,0.48804173385198396,0.5106722173008118,0.5333324405198447,0.5596900320333689,0.5926185984159537,0.6437526907765747,1.2775973086020593,0.9321348314606741,0.4935880798331391,0.0,0.963224043715847,50,1163,1582,772030,no_split,narrow,individual,1,0.48453831672668457
0,0.0,0.44381182553249643,0.35203892814557436,0.372390070447578,0.3892304067653475,0.4041309402661412,0.4204254121056269,0.43985769871969116,0.4632376706475558,0.49812526388860423,0.5659321998344452,1.1361146523468102,0.9892462311557789,0.4718441854025884,0.0,0.9336842105263158,50,1163,1583,772030,no_split,narrow,individual,1,0.48615217208862305
1,1.0,0.4997363834733299,0.3827170549768091,0.4159082381688142,0.44179833089852955,0.46530404575302486,0.48836594945986234,0.5121250722461078,0.5399214271714934,0.5752785365208948,0.6273009297190694,1.2540102138661848,0.8784,0.4718441854025884,0.0,0.9336842105263158,50,1163,1583,772030,no_split,narrow,individual,1,0.48615217208862305
0,0.0,0.5581310539107093,0.408075846551499,0.436951024761729,0.4632819736584298,0.487578350616237,0.5175186661373629,0.552617719959149,0.5929018201363507,0.6548616651186059,0.7614559215900238,1.5168858469746744,0.9627322404371584,0.5730740208501907,0.0,0.9413736263736264,50,1163,1597,772030,no_split,narrow,individual,1,0.48368024826049805
1,1.0,0.5881821034464618,0.4241947876517131,0.46304226850050617,0.49389646313378344,0.5251696609808554,0.5567770639365015,0.5927195955567301,0.6351880526066436,0.6932609171839968,0.7915711908675033,1.5484618270454409,0.9197790055248619,0.5730740208501907,0.0,0.9413736263736264,50,1163,1597,772030,no_split,narrow,individual,1,0.48368024826049805
0,0.0,0.4162624745763777,0.3331884415080611,0.3543792838706914,0.37183017580318356,0.388121904703958,0.4037486945120313,0.4197679310988968,0.44045418671274694,0.4680469164330814,0.5140972022678592,1.0659801174972037,0.9889617486338798,0.4394274096917897,0.0,0.96496,50,1163,1601,772030,no_split,narrow,individual,1,0.4864170551300049
1,1.0,0.4615064884736668,0.3526938545433906,0.3812659768489435,0.40397467547601723,0.42659227441367614,0.448827300343113,0.472302147082878,0.4997328973083776,0.5338132774965634,0.5858484088683127,1.1708337164668186,0.9420833333333334,0.4394274096917897,0.0,0.96496,50,1163,1601,772030,no_split,narrow,individual,1,0.4864170551300049
0,0.0,0.49266408154271146,0.37266182640761114,0.3995733555009507,0.421931373741794,0.44243868538574943,0.46403326803130207,0.4889745070522548,0.5217528788828386,0.5679241557531303,0.6506076622861817,1.6154703931907088,0.9792079207920792,0.5126379710198834,0.0,0.9500537634408602,50,1163,1614,772030,no_split,narrow,individual,1,0.4757678508758545
1,1.0,0.5363716514574642,0.39816717029810067,0.4331100507727184,0.4629844132573299,0.49261627615509407,0.5202712811521629,0.5497980006530273,0.5812659265998101,0.6244070857413994,0.6944345164340102,1.2274863018833286,0.9154117647058824,0.5126379710198834,0.0,0.9500537634408602,50,1163,1614,772030,no_split,narrow,individual,1,0.4757678508758545
0,0.0,0.46970468859071945,0.37382208768336245,0.40256512627344077,0.4214027637364467,0.4408113842695707,0.4583604442172998,0.4777754263268347,0.5011756207897806,0.5308625262886514,0.5751729464307591,0.999560940124581,0.9888397790055249,0.48851238109763356,0.0,0.9696315789473684,50,1163,1638,772030,no_split,narrow,individual,1,0.48613834381103516
1,1.0,0.5056188752873394,0.3957450921773881,0.42779407335231356,0.4514008278872728,0.473201890470394,0.4971555442543558,0.5195036455250609,0.5449101973029106,0.5765029488418554,0.6287526497039542,0.9960219229693206,0.9521608040201005,0.48851238109763356,0.0,0.9696315789473684,50,1163,1638,772030,no_split,narrow,individual,1,0.48613834381103516
0,0.0,0.40236602445026687,0.32810065529074556,0.34762577037715003,0.36187318033121446,0.3749082142473492,0.3884126418522945,0.4041939988047509,0.42183657375845696,0.4467639070341847,0.49074643488522485,0.9205693389580439,0.9695918367346938,0.41664956283492527,0.0,0.9311590296495957,50,1163,1657,772030,no_split,narrow,individual,1,0.4888002872467041
1,1.0,0.43264712582574266,0.3403080162225361,0.36415674604878057,0.38319340156243664,0.4012980228559296,0.41951186996113354,0.4396806165612033,0.4643720086385093,0.4951887518907651,0.540697895902809,0.9530945821698775,0.8881142857142857,0.41664956283492527,0.0,0.9311590296495957,50,1163,1657,772030,no_split,narrow,individual,1,0.4888002872467041
0,0.0,0.45810519152814316,0.3755778793739443,0.39654840318536316,0.4129687219364632,0.4274668438539421,0.44376443097745727,0.46181289540064374,0.4826610625711397,0.5097191722272524,0.5560972881136572,1.0790093289958296,0.9898461538461538,0.4770297613467494,0.0,0.9679695431472081,50,1163,1663,772030,no_split,narrow,individual,1,0.48361682891845703
1,1.0,0.49557393780216763,0.39314421568167685,0.42148379628445454,0.4443224511512423,0.46475832291176794,0.4852234296694312,0.5068412116823032,0.5302923711172088,0.5623804450116862,0.6095067986489521,1.06169451920099,0.9465326633165829,0.4770297613467494,0.0,0.9679695431472081,50,1163,1663,772030,no_split,narrow,individual,1,0.48361682891845703
0,0.0,0.5021077172290448,0.3935361335834341,0.4202484751168304,0.44111149706639907,0.46145928881141735,0.48138164903861336,0.5051054856092858,0.5334027989710521,0.5722699933077334,0.6353762178533039,1.2050014247740883,0.9719337016574585,0.5133261781750259,0.0,0.957403314917127,50,1163,1761,772030,no_split,narrow,individual,1,0.4839293956756592
1,1.0,0.5245446391210067,0.40532974650067366,0.435080482349986,0.4606824332504424,0.4837474038371945,0.5064986147330577,0.5330904683020948,0.5628555417861459,0.6036361594574788,0.6652396107015297,1.3202614780407753,0.9428729281767956,0.5133261781750259,0.0,0.957403314917127,50,1163,1761,772030,no_split,narrow,individual,1,0.4839293956756592
0,0.0,0.4565532545520879,0.354052684839032,0.38067984922336123,0.4009580445360625,0.41951814509159846,0.4378039099924905,0.4588641067610591,0.4839012054801079,0.5203651099210721,0.579472299310968,1.1363031659209697,0.9694565217391304,0.4699160022526394,0.0,0.9454594594594594,50,1163,1768,772030,no_split,narrow,individual,1,0.48037290573120117
1,1.0,0.48313506449404536,0.3681655797692614,0.3968801437862714,0.42158999681589004,0.4434349147202293,0.46682488718247556,0.4899885999394275,0.5210902796712665,0.5601940129803079,0.6208802004079326,1.3107742645351657,0.9217204301075269,0.4699160022526394,0.0,0.9454594594594594,50,1163,1768,772030,no_split,narrow,individual,1,0.48037290573120117
0,0.0,0.3786856261904092,0.3008046318483653,0.3214275531662272,0.33721498341808215,0.35123434953714666,0.36602775400492593,0.3815238894482424,0.4004565857103447,0.427687396125367,0.47305201146795045,1.1308197643449585,0.9732960893854748,0.3952197985066204,0.0,0.9329411764705883,50,1163,1813,772030,no_split,narrow,individual,1,0.48249149322509766
1,1.0,0.41039732078662977,0.3156713244793699,0.34051121829783115,0.3606832979309798,0.37958593130205487,0.39932406389023756,0.4189901025003554,0.4422580637654284,0.4740819380484384,0.5226407349134602,0.8939538928407096,0.8958974358974359,0.3952197985066204,0.0,0.9329411764705883,50,1163,1813,772030,no_split,narrow,individual,1,0.48249149322509766
0,0.0,0.40211160266521834,0.3147041690452686,0.33389125687888405,0.34960601469370384,0.3646361593548778,0.38098885924292714,0.40006310842693255,0.42358635058682353,0.4572388342680992,0.5182049023289752,1.0890072247872356,0.9857560975609756,0.4210341261103035,0.0,0.9591584158415841,50,1163,1821,772030,no_split,narrow,individual,1,0.4798598289489746
1,1.0,0.44052717790046647,0.33393125530990236,0.3611011593120149,0.38401744397892923,0.4058491578497415,0.4276095779703029,0.45139418412029825,0.4774549629473096,0.5115595322754504,0.5626619530132805,1.0168317339762727,0.9317587939698493,0.4210341261103035,0.0,0.9591584158415841,50,1163,1821,772030,no_split,narrow,individual,1,0.4798598289489746
0,0.0,0.3974874169584767,0.3166788277765004,0.3359242092485619,0.352095975194684,0.36676203480704456,0.38190613114187366,0.3990997056989807,0.4202638411807616,0.4494744260050226,0.4998121900350053,0.960443252605909,0.9825414364640884,0.40686661194201584,0.0,0.9727127659574468,50,1163,3286,772030,no_split,narrow,individual,1,0.47862744331359863
1,1.0,0.41557242882417256,0.32620726869886646,0.34831620523168066,0.36666464804844834,0.3836552956273338,0.4020191133309773,0.42165057007603773,0.44577562028488654,0.47479694722317967,0.5222529307557652,0.9919764050813646,0.9635897435897436,0.40686661194201584,0.0,0.9727127659574468,50,1163,3286,772030,no_split,narrow,individual,1,0.47862744331359863
0,0.0,0.474991511728147,0.37478412054774696,0.4002809752360682,0.4195739468340343,0.4389526968713554,0.45776512103885875,0.4775780418820642,0.5023628215666247,0.5367562738638076,0.5988737660129008,1.2196327286335302,0.9847727272727272,0.49752739725143547,0.0,0.9592307692307692,50,1163,3292,772030,no_split,narrow,individual,1,0.46454668045043945
1,1.0,0.5186248219966417,0.396122152698096,0.4297714199880124,0.4562317630997188,0.4800170117957768,0.5047828333573163,0.5305066499310626,0.5622149868694293,0.5987721317841523,0.6585752951804716,1.1729656097862449,0.9353191489361702,0.49752739725143547,0.0,0.9592307692307692,50,1163,3292,772030,no_split,narrow,individual,1,0.46454668045043945
0,0.0,0.3973797670808478,0.32663731689845443,0.3463220302045673,0.3606279329164511,0.37428527530834044,0.3877615010282236,0.40157862316986354,0.4181802288800593,0.4399037314451727,0.4773893571398502,0.8666813479431285,0.9904812834224599,0.42083699822188164,0.0,0.9357922077922078,50,1163,3487,772030,no_split,narrow,individual,1,0.4727344512939453
1,1.0,0.4429910498550801,0.3510554388889879,0.3766382156320023,0.39779917347373206,0.41710024034333093,0.43533939606871547,0.4549581040336461,0.4772285193444351,0.5032865130946931,0.5437767095012409,0.9504664327974855,0.8841414141414141,0.42083699822188164,0.0,0.9357922077922078,50,1163,3487,772030,no_split,narrow,individual,1,0.4727344512939453
0,0.0,0.4093207429171152,0.35015846791049327,0.36859770088511207,0.3815064865157464,0.39349541665991283,0.40422377034493934,0.415983822962167,0.42994393774864653,0.44588538767301356,0.47240742015581694,0.8038115461136018,0.9817910447761194,0.421196848818634,0.0,0.9472081218274112,50,1163,3580,772030,no_split,narrow,individual,1,0.47175002098083496
1,1.0,0.43356522853990515,0.36216622660746517,0.3833269943225241,0.3993330495834191,0.4133906234960461,0.42781716460723407,0.4422223060016077,0.4600343218877723,0.48023361111141494,0.5122098704498715,0.8282121539693542,0.9111917098445595,0.421196848818634,0.0,0.9472081218274112,50,1163,3580,772030,no_split,narrow,individual,1,0.47175002098083496
0,0.0,0.48924610961664344,0.37816290137352593,0.4021332111097409,0.42148609310722907,0.44114942713636357,0.46263552804039293,0.48656707007150085,0.5160541444329751,0.5586705614767887,0.6347974207174475,1.280342933169398,0.9419354838709677,0.5004523730721955,0.0,0.9122651933701658,50,1163,3625,772030,no_split,narrow,individual,1,0.46488428115844727
1,1.0,0.5122953560422677,0.3868395790035962,0.41679532932619606,0.4413154971136339,0.46532110982547775,0.49064141746433243,0.5187872089187558,0.5506285033169833,0.5947918036257288,0.6627383775231265,1.2620693337210354,0.8809090909090909,0.5004523730721955,0.0,0.9122651933701658,50,1163,3625,772030,no_split,narrow,individual,1,0.46488428115844727
0,0.0,0.5274040809400553,0.41985020005792056,0.4487710133456491,0.4745105896521621,0.49557238552986804,0.5167072547361562,0.5383868919027909,0.5630533921267874,0.595803941351525,0.6463946973712137,1.1848999768041428,0.9901123595505618,0.5492637422760301,0.0,0.9765311653116531,50,1163,3754,772030,no_split,narrow,individual,1,0.4727623462677002
1,1.0,0.5696355732592947,0.44671881076376874,0.4822472890728202,0.5082507053447924,0.5331821855835946,0.5592645628209953,0.5855952964499914,0.6133922231868882,0.6507859457344188,0.7057642626768492,1.1636763326320572,0.9638743455497382,0.5492637422760301,0.0,0.9765311653116531,50,1163,3754,772030,no_split,narrow,individual,1,0.4727623462677002
0,0.0,0.41066345120479897,0.3386826156731701,0.3580569947382983,0.37348513249670506,0.3875738515232357,0.40133426688070317,0.4168311986596941,0.43382075516015506,0.4556392000990547,0.49436171443962407,0.9504789659202291,0.9920212765957447,0.42472209636870206,0.0,0.9790673575129534,50,1163,3910,772030,no_split,narrow,individual,1,0.4693112373352051
1,1.0,0.4380707089485696,0.3530080195222366,0.3765406662265889,0.39570334034508187,0.412366130739905,0.4302859367168267,0.44823169804056234,0.46968524722966654,0.4938271388665089,0.5312467735486762,0.8888821956682981,0.9667676767676767,0.42472209636870206,0.0,0.9790673575129534,50,1163,3910,772030,no_split,narrow,individual,1,0.4693112373352051
0,0.0,0.40155690539360467,0.33780740735178133,0.3525130189505222,0.3647929768570074,0.3764346628541633,0.389279042059624,0.40354418435516565,0.420196745815837,0.4430743620865672,0.48108081271902575,0.849886276036174,0.9921546961325967,0.41450401838412326,0.0,0.9787894736842105,50,1163,4222,772030,no_split,narrow,individual,1,0.4659569263458252
1,1.0,0.42628003572725826,0.34968862914881693,0.36895767187514783,0.3860249763642224,0.4006674207118668,0.4165368224861431,0.4328931125993231,0.45198605356516874,0.4760184218202295,0.515729849890056,0.8526221841531787,0.9666331658291457,0.41450401838412326,0.0,0.9787894736842105,50,1163,4222,772030,no_split,narrow,individual,1,0.4659569263458252
0,0.0,0.46881611261011397,0.3542918730023146,0.38181546020608825,0.40348460604054287,0.4234676472444008,0.44561357151085773,0.46876025628950163,0.4986633934490835,0.5402748215973404,0.6132724250685461,1.2422402987289063,0.9465656565656566,0.4843481111460801,0.0,0.9001007556675062,50,1163,4264,772030,no_split,narrow,individual,1,0.4660227298736572
1,1.0,0.49980205943814704,0.3691438725984378,0.4023966303027494,0.42843938165519824,0.4551222551367573,0.48010473929502273,0.508657241951728,0.5415942285764825,0.5864417773408207,0.6575710036518803,1.3810967324861843,0.8538693467336683,0.4843481111460801,0.0,0.9001007556675062,50,1163,4264,772030,no_split,narrow,individual,1,0.4660227298736572
0,0.0,0.42631286287122655,0.3560377428997681,0.3756611505156138,0.3899087137057739,0.40385801953779266,0.4173570854625176,0.4318255006932225,0.4487431541039915,0.47056804671369984,0.5058125180133936,0.866842019307173,0.9928042328042328,0.44309876204951254,0.0,0.975,50,1163,5281,772030,no_split,narrow,individual,1,0.4689486026763916
1,1.0,0.46082242095842896,0.37424291406425053,0.39863045038552886,0.41715250594681175,0.4348258911235836,0.4525503444481327,0.4713862710473494,0.49216136986218423,0.5185252868502236,0.5595456397226264,0.8372356911771445,0.9562011173184357,0.44309876204951254,0.0,0.975,50,1163,5281,772030,no_split,narrow,individual,1,0.4689486026763916
0,0.0,0.4553043394585309,0.3668410207806169,0.39010388637606475,0.40726663956346804,0.42377021650262586,0.44018503054310765,0.4583977168149161,0.4809001397957548,0.5105419073358096,0.5614686214028,0.9461478034044742,0.9955434782608695,0.47497476602651484,0.0,0.9781081081081081,50,1163,5332,772030,no_split,narrow,individual,1,0.4703483581542969
1,1.0,0.49443368263140225,0.39006239936062864,0.4210301918453805,0.4450890692670925,0.4660736519313466,0.4866858120579931,0.5075901928636323,0.5319534066467622,0.5631781041561273,0.6082848678141277,1.0401507416322913,0.9608602150537634,0.47497476602651484,0.0,0.9781081081081081,50,1163,5332,772030,no_split,narrow,individual,1,0.4703483581542969
0,0.0,0.45756607289950574,0.3721934587030862,0.3967316893729485,0.41485613421218026,0.43027447592520496,0.4453212035495946,0.46238468158498,0.4826876468886211,0.5098360077877288,0.5540168545486356,1.0654283657076073,0.9792893401015228,0.4716932619376524,0.0,0.9580512820512821,50,1163,5575,772030,no_split,narrow,individual,1,0.467639684677124
1,1.0,0.4861132424584549,0.3899404216792576,0.41608352569816603,0.4367631278322999,0.45652989473735694,0.4760389390510089,0.49565343819205887,0.5199271918516882,0.5495312609966705,0.5967609631316005,1.0212517430620092,0.9363730569948187,0.4716932619376524,0.0,0.9580512820512821,50,1163,5575,772030,no_split,narrow,individual,1,0.467639684677124
0,0.0,0.4534687775922201,0.3623804355757327,0.3858141807719731,0.4040571019076608,0.42097391125814987,0.43846903468803,0.4570239574778023,0.4797232288262418,0.5111941425180716,0.5620076298458394,1.0650962609273236,0.9633160621761658,0.4649650462308944,0.0,0.93,50,1163,5731,772030,no_split,narrow,individual,1,0.47020936012268066
1,1.0,0.47611469370458354,0.37796384480476003,0.403269949534782,0.4248677374130696,0.44453533821093083,0.4641288356815385,0.48518309510012053,0.5084856919156058,0.5392224497615454,0.5910793898553299,1.147053271990941,0.8976884422110553,0.4649650462308944,0.0,0.93,50,1163,5731,772030,no_split,narrow,individual,1,0.47020936012268066
0,0.0,0.43677067626994254,0.3625597499243847,0.38324698088409964,0.39942871020810855,0.41392842989344836,0.42709669676875495,0.4427029867628003,0.4608983850582724,0.4826549572166097,0.5196899613447437,0.9549204516378559,0.9954347826086957,0.4609336089137966,0.0,0.9645776566757494,50,1163,5761,772030,no_split,narrow,individual,1,0.4650120735168457
1,1.0,0.4852285794409502,0.3901204207625459,0.4202759931448452,0.44213852562024974,0.46156836541027996,0.4797884381939216,0.4991077556252621,0.5198593674941837,0.5456351060007073,0.5836826738113003,0.9528743854528079,0.933551912568306,0.4609336089137966,0.0,0.9645776566757494,50,1163,5761,772030,no_split,narrow,individual,1,0.4650120735168457
0,0.0,0.4461892656593903,0.3387376813379641,0.36491284933522233,0.3854430805950938,0.40551267656337275,0.4267017719688968,0.4484284103345067,0.4762359923560976,0.5138038915198504,0.5766850844612331,1.1453842762356767,0.9303571428571429,0.4543577075413663,0.0,0.8993495934959349,50,1163,5803,772030,no_split,narrow,individual,1,0.4685556888580322
1,1.0,0.461185061950182,0.34854587792399255,0.3763547573051023,0.39834446598198225,0.41918431162409403,0.44262020755169573,0.4674960604669183,0.4967359289121811,0.5348601615849115,0.5967384177906191,1.2312840935070082,0.8734328358208955,0.4543577075413663,0.0,0.8993495934959349,50,1163,5803,772030,no_split,narrow,individual,1,0.4685556888580322
0,0.0,0.5030553076126758,0.3788790791989855,0.41059235378030284,0.43443269799623874,0.45677997358754996,0.4789111333224757,0.5049576485332349,0.5364528274663689,0.5806520646347406,0.6536981030333279,1.4824397092607187,0.9743283582089552,0.5231523461898602,0.0,0.9367441860465117,50,1163,5815,772030,no_split,narrow,individual,1,0.4657783508300781
1,1.0,0.5448701136845595,0.4038939050259602,0.4416791454524799,0.47170285528924266,0.5012741631485734,0.528744698391588,0.5582743174123169,0.5913902241235549,0.6347345089006721,0.7026494474661619,1.321215821207476,0.8961290322580645,0.5231523461898602,0.0,0.9367441860465117,50,1163,5815,772030,no_split,narrow,individual,1,0.4657783508300781
0,0.0,0.41715266684307345,0.3508570114636758,0.36838905743468964,0.3805254796144449,0.3926115865761086,0.4052586516343956,0.41946967654908973,0.4356659043478387,0.45802636907532934,0.4954272072480191,0.999523188758082,0.9940449438202247,0.4426333204290296,0.0,0.9708991825613079,50,1163,6055,772030,no_split,narrow,individual,1,0.4656200408935547
1,1.0,0.46663097301262846,0.3744645870047316,0.39930564158296894,0.41861194419321,0.4378191378204978,0.4577569528950745,0.4778021038866259,0.5012405241722379,0.5279416620081805,0.5680994062584819,0.9792728435227273,0.9491005291005291,0.4426333204290296,0.0,0.9708991825613079,50,1163,6055,772030,no_split,narrow,individual,1,0.4656200408935547
0,0.0,0.47769119748134853,0.3614538052505831,0.3858893579205398,0.4065414211297126,0.42765017410963424,0.4509536414848778,0.4760354413573724,0.5076691010995631,0.5526666064485822,0.630291722351696,1.4945174692681307,0.9445918367346938,0.4857656956397469,0.0,0.9316939890710383,50,1163,6109,772030,no_split,narrow,individual,1,0.4673013687133789
1,1.0,0.4950751170459004,0.3707633293867884,0.3981041808291172,0.42259634501245585,0.44639017628185845,0.4712179889585225,0.501892762774319,0.5342460377945536,0.5779950691583132,0.6487157674639569,1.2608274757868976,0.9168235294117647,0.4857656956397469,0.0,0.9316939890710383,50,1163,6109,772030,no_split,narrow,individual,1,0.4673013687133789
0,0.0,0.4026927782006405,0.3341765020557504,0.35004002176372,0.36262350363585344,0.37423179276442176,0.3865583347013133,0.400329485354584,0.41801297088708816,0.44354848265221164,0.49030412133474904,0.9667476797224495,0.9903773584905661,0.42348674740852055,0.0,0.9386570743405276,50,1163,6214,772030,no_split,narrow,individual,1,0.472186803817749
1,1.0,0.4449907545893526,0.3576741302532663,0.38278067890987016,0.4017215753869687,0.41951818044851197,0.4369701449378627,0.4549132862878899,0.4752676755865335,0.5004593044923124,0.5406571241373457,0.9076114521225834,0.8851707317073171,0.42348674740852055,0.0,0.9386570743405276,50,1163,6214,772030,no_split,narrow,individual,1,0.472186803817749
0,0.0,0.4613090767047902,0.3635403542437912,0.388063656627627,0.408215559826439,0.4261697258973243,0.44556686950969815,0.4667848157457495,0.4905540611072589,0.52364774143332,0.5800761898699406,1.5107727481312705,0.9436170212765957,0.46587653058739215,0.0,0.9275331564986737,50,1163,6253,772030,no_split,narrow,individual,1,0.47564196586608887
1,1.0,0.4704198180473348,0.36725945552291367,0.39318636507971694,0.41454513036890384,0.43465518701911493,0.4551181334499247,0.47706031152982314,0.5036754939724671,0.5395668054506063,0.5922784519752707,1.168308857204227,0.9115343915343915,0.46587653058739215,0.0,0.9275331564986737,50,1163,6253,772030,no_split,narrow,individual,1,0.47564196586608887
0,0.0,0.4631355297197357,0.3777025075186045,0.40245500804482087,0.4218307955665359,0.43858904110974606,0.4548283410636487,0.47114758260375605,0.49102687858593436,0.516468626298122,0.5549821613507526,1.074370111644456,0.9786740331491712,0.4786312210569969,0.0,0.9482608695652174,50,1163,6262,772030,no_split,narrow,individual,1,0.47583961486816406
1,1.0,0.49362972443691294,0.39648734550133286,0.4260300607367805,0.44759783718057805,0.4668788102932661,0.4861000193690127,0.5065231460443574,0.5288999360906352,0.5575785564912921,0.6002086328743614,0.9664096172723746,0.9188235294117647,0.4786312210569969,0.0,0.9482608695652174,50,1163,6262,772030,no_split,narrow,individual,1,0.47583961486816406
0,0.0,0.49869102488084305,0.4077420526607359,0.4307209500055609,0.4486079612429516,0.46518672584394083,0.4821481031027225,0.5014818982643475,0.526086968995772,0.5574423812762526,0.6124969134832494,1.0010101210118756,0.9913368983957219,0.5142085043551328,0.0,0.9775,50,1163,6361,772030,no_split,narrow,individual,1,0.4783177375793457
1,1.0,0.5302403754142055,0.4274079820735277,0.4549671337953286,0.47837349532578016,0.49908431523881086,0.5195387104938152,0.5415438457927038,0.5672229469924209,0.5978862390715785,0.6467287231243578,0.9925760641949242,0.9632044198895028,0.5142085043551328,0.0,0.9775,50,1163,6361,772030,no_split,narrow,individual,1,0.4783177375793457
0,0.0,0.4195057795867665,0.343368158430128,0.3652316655901773,0.38221319536872966,0.39660496614412216,0.41089001923709745,0.4260533944696981,0.44388981163003105,0.4665081787378978,0.5040610266752737,1.069888938807974,0.9762841530054645,0.43044068183339484,0.0,0.9557368421052631,50,1163,6427,772030,no_split,narrow,individual,1,0.4775395393371582
1,1.0,0.44059848442797844,0.35810739266450686,0.38148760381124436,0.3999438282125633,0.4158476310205403,0.432389407372638,0.45022771613640783,0.4705757437623097,0.4942264349354977,0.5342275930456585,0.8248055503878597,0.9366497461928934,0.43044068183339484,0.0,0.9557368421052631,50,1163,6427,772030,no_split,narrow,individual,1,0.4775395393371582
0,0.0,0.46935346115319976,0.3861128854523568,0.40494051469703457,0.4218288078363067,0.4370822595305258,0.45349578470295704,0.4710839452247078,0.4934552712668651,0.5231800481840252,0.574861935726812,1.0512406246653931,0.9738219895287958,0.47696775449894985,0.0,0.9584168865435356,50,1163,6583,772030,no_split,narrow,individual,1,0.47711682319641113
1,1.0,0.48470355252574915,0.3937471415145003,0.41828412988432706,0.4362593470126823,0.4544284622546841,0.4719353777948564,0.49175941492131703,0.5138723303068738,0.5417515926413877,0.5905536268687733,1.1025709266468515,0.9427659574468085,0.47696775449894985,0.0,0.9584168865435356,50,1163,6583,772030,no_split,narrow,individual,1,0.47711682319641113
0,0.0,0.44267054080341994,0.36094345972066594,0.383187753025351,0.3995142050399752,0.41533526326042175,0.43008140320165156,0.44621844488446616,0.46528631831047423,0.4915948136356994,0.5368310433029629,1.151377588202243,0.9870769230769231,0.4636433093585869,0.0,0.9496923076923077,50,1163,6634,772030,no_split,narrow,individual,1,0.47392702102661133
1,1.0,0.48461607791375394,0.3814687696804027,0.4105638009141243,0.43280119143212603,0.45473343139773403,0.47596745496250387,0.49752116759222426,0.5220997184035546,0.5525933561466115,0.5974138719245151,1.131402622068547,0.9123076923076923,0.4636433093585869,0.0,0.9496923076923077,50,1163,6634,772030,no_split,narrow,individual,1,0.47392702102661133
0,0.0,0.4595051439558818,0.3804177561197912,0.40195501640870895,0.41926582204651275,0.4339245550522598,0.44890133643621466,0.46514276438839836,0.4840486152449513,0.5078813337300422,0.549671585889807,0.9834564841254546,0.9888421052631579,0.48558358987069805,0.0,0.9388266666666667,50,1163,6844,772030,no_split,narrow,individual,1,0.47579264640808105
1,1.0,0.5123668586480767,0.40537325430712134,0.4360207100570267,0.4603408916628989,0.48163027971382855,0.5035579826858596,0.5265506739026757,0.5514418739815315,0.5815953572704567,0.6291127973902431,0.9944741221595681,0.8874594594594595,0.48558358987069805,0.0,0.9388266666666667,50,1163,6844,772030,no_split,narrow,individual,1,0.47579264640808105
0,0.0,0.44071093646878573,0.36001240772910076,0.38112935720220364,0.39700721930834026,0.4119409248705227,0.4279723809663047,0.44524426538648176,0.46409791616916785,0.48912981584621146,0.53369532068925,1.0531760484498063,0.981639344262295,0.46247527968589724,0.0,0.9427792915531336,50,1163,7624,772030,no_split,narrow,individual,1,0.4760599136352539
1,1.0,0.4841213384290026,0.37962945591889574,0.4076024529481223,0.43003144553044254,0.4502057169707944,0.4723844301759562,0.4947681054605104,0.5206724425265402,0.553601366048284,0.6045850904810995,1.2597576035065527,0.9041304347826087,0.46247527968589724,0.0,0.9427792915531336,50,1163,7624,772030,no_split,narrow,individual,1,0.4760599136352539
0,0.0,0.4087996820183188,0.34372781006547576,0.359878771147115,0.37237351709958627,0.38388514181881944,0.39622994248345766,0.40932666646805554,0.42558231748503766,0.4477183976136315,0.4873750171137109,0.9550661005462009,0.9814973262032085,0.4302041095566878,0.0,0.9274151436031332,50,1163,7756,772030,no_split,narrow,individual,1,0.47643351554870605
1,1.0,0.4506256807284992,0.36075319617711293,0.38300791250425026,0.40093666542715795,0.4191476909751964,0.43845629402938807,0.45915011672791234,0.48222467635287897,0.5120115236234141,0.5575194584881037,0.9457620327060563,0.8758163265306123,0.4302041095566878,0.0,0.9274151436031332,50,1163,7756,772030,no_split,narrow,individual,1,0.47643351554870605
0,0.0,0.43523427681948484,0.3369456972648965,0.3643693200071738,0.3863320866158654,0.4044156415109366,0.42320736167065265,0.44256633533256023,0.4672285796523284,0.49790214022659524,0.5484391555775258,1.1032000378688596,0.9825,0.4458300244681642,0.0,0.9695187165775401,50,1163,7768,772030,no_split,narrow,individual,1,0.4716150760650635
1,1.0,0.4570079560535841,0.3521205771606824,0.3807791935259138,0.404694176194991,0.4261128312421392,0.44578444945065554,0.46774782977276397,0.49352544799579917,0.5248034563343912,0.5746930954919053,1.0746284293308865,0.9558241758241758,0.4458300244681642,0.0,0.9695187165775401,50,1163,7768,772030,no_split,narrow,individual,1,0.4716150760650635
0,0.0,0.4053779154079109,0.3169852385819878,0.3397257270848315,0.35745540519840613,0.3732051819121759,0.38868246816420615,0.4062897258379253,0.4270886344853547,0.45726142544629256,0.510739900642837,1.1961345469395623,0.9764705882352941,0.42783349375559654,0.0,0.9281720430107527,50,1163,7807,772030,no_split,narrow,individual,1,0.4736621379852295
1,1.0,0.4505318351124464,0.3383556712072257,0.3665412809891967,0.39078560331277457,0.41320975752621175,0.43478892669863956,0.4604800127526824,0.48915535569702906,0.5249949042223419,0.5808835914811726,1.2058928509035274,0.8793513513513513,0.42783349375559654,0.0,0.9281720430107527,50,1163,7807,772030,no_split,narrow,individual,1,0.4736621379852295
0,0.0,0.40168074799374726,0.32817606641052005,0.34516837133743944,0.3591885601397004,0.3719901843923839,0.385601608613813,0.4015862821130473,0.42001826514628415,0.44877655116895854,0.49669263191999263,0.9199023630560492,0.9861538461538462,0.416279833255907,0.0,0.9574515235457064,50,1163,7813,772030,no_split,narrow,individual,1,0.48001885414123535
1,1.0,0.43112359592469507,0.3449898659140021,0.3677623257637939,0.38634794649538606,0.4032530900605218,0.420724781685178,0.43929331226083224,0.46125970479347966,0.48888221866892095,0.5294500090956191,0.8800702945500409,0.928268156424581,0.416279833255907,0.0,0.9574515235457064,50,1163,7813,772030,no_split,narrow,individual,1,0.48001885414123535
0,0.0,0.4104431067358076,0.35007425936834896,0.3678120167178535,0.3803137199772774,0.391887146902195,0.4026315154801694,0.41480643935201766,0.4295079814768281,0.447254727124276,0.47602420841596704,0.8423864872025348,0.9957446808510638,0.43500290138633185,0.0,0.9643069306930693,50,1163,7828,772030,no_split,narrow,individual,1,0.47667455673217773
1,1.0,0.45637901895252886,0.37594198077575236,0.3988629030625025,0.41739862015445306,0.4346391409171847,0.4512577026082201,0.46801936224456836,0.48632831527779496,0.5093317589401869,0.5434875930786676,0.804198346293221,0.9369444444444445,0.43500290138633185,0.0,0.9643069306930693,50,1163,7828,772030,no_split,narrow,individual,1,0.47667455673217773
0,0.0,0.536781274638606,0.40102967785045834,0.43157067293338713,0.4556797392311248,0.4792887705528406,0.5043337304437794,0.5343883124212055,0.5717800599555246,0.6225781889273065,0.7148828172769507,1.5582526289421652,0.982010582010582,0.5596688684120263,0.0,0.9606201550387596,50,1163,7840,772030,no_split,narrow,individual,1,0.46627378463745117
1,1.0,0.5815161170139275,0.42986311218908857,0.46910961657683653,0.5019086269586212,0.5322699563543798,0.5621749049776892,0.5936858468278563,0.6298424437874112,0.6780855230742926,0.75609662936728,1.579438088004244,0.9402020202020202,0.5596688684120263,0.0,0.9606201550387596,50,1163,7840,772030,no_split,narrow,individual,1,0.46627378463745117
0,0.0,0.4692085899981914,0.3894135262820399,0.410106105347694,0.4261743345853439,0.4414404567947444,0.45641359125978204,0.473270101364524,0.4934045076722644,0.5202769152581997,0.5663255612946956,0.91093976084624,0.9978888888888889,0.4932889761268437,0.0,0.9917866666666667,50,1163,7924,772030,no_split,narrow,individual,1,0.47182345390319824
1,1.0,0.5155170248609842,0.4191823930217064,0.44690291618715966,0.4690314136655143,0.48945580857359144,0.5080902489133379,0.5285467760133898,0.5502999560229866,0.5786550378707763,0.6185419939838555,0.9947198213577075,0.9861538461538462,0.4932889761268437,0.0,0.9917866666666667,50,1163,7924,772030,no_split,narrow,individual,1,0.47182345390319824
0,0.0,0.4643220599087799,0.3750979764311494,0.3977019505053653,0.41576373484253093,0.43175262567256234,0.4492885081641891,0.4689815464074223,0.4916628784639463,0.5230880407828252,0.5711386522946009,1.072225950292141,0.989578947368421,0.4789718521202357,0.0,0.974379746835443,50,1163,7939,772030,no_split,narrow,individual,1,0.47042012214660645
1,1.0,0.492549708316219,0.3905545599706499,0.4194544741373959,0.4416820024453608,0.4613715884794129,0.4813676711189412,0.5026183879128867,0.5276720400822711,0.5605353537966429,0.6048139819151311,1.1997717047177636,0.9602926829268292,0.4789718521202357,0.0,0.974379746835443,50,1163,7939,772030,no_split,narrow,individual,1,0.47042012214660645
0,0.0,0.4508927793609901,0.36412399378702925,0.38576309865586045,0.4016582101500987,0.4171052463153755,0.4323178055785648,0.4505868017631761,0.4726620350101854,0.5043707300845856,0.5606294820359653,1.1858606226720987,0.9716363636363636,0.46516846295886577,0.0,0.9440677966101695,50,1163,8026,772030,no_split,narrow,individual,1,0.4690895080566406
1,1.0,0.4776313613379635,0.37657202631578574,0.40193800081777864,0.4229597739400151,0.44305076502298324,0.46402660084225034,0.48499719788126083,0.5105541678299051,0.5442312757339158,0.5954181289370327,1.186898885081762,0.92,0.46516846295886577,0.0,0.9440677966101695,50,1163,8026,772030,no_split,narrow,individual,1,0.4690895080566406
0,0.0,0.4518204114524097,0.34935906067464734,0.37289881044255946,0.3926841427775977,0.4107831940440551,0.4289596720083092,0.4504507718030336,0.4779875089913614,0.5172800919460475,0.5834106827245226,1.1456141635315626,0.9407486631016043,0.46120281287615367,0.0,0.9064657534246575,50,1163,8311,772030,no_split,narrow,individual,1,0.4672582149505615
1,1.0,0.47105960538312075,0.35829133446295314,0.38552241867306364,0.40785878289892363,0.4296917977972031,0.45169945966302005,0.47683428715996096,0.5060675384038033,0.5455054014954249,0.6079762134214062,1.3656995312803504,0.8704494382022472,0.46120281287615367,0.0,0.9064657534246575,50,1163,8311,772030,no_split,narrow,individual,1,0.4672582149505615
0,0.0,0.38961672702002065,0.3237608624867195,0.34241436157682287,0.356633372955665,0.36985552239088665,0.38221319652360536,0.39505000277012,0.41052993539646293,0.4295272611373555,0.46156081686896894,1.0698060383066508,0.9850777202072539,0.4090996296014303,0.0,0.9210840108401084,50,1163,8446,772030,no_split,narrow,individual,1,0.4622783660888672
1,1.0,0.43046440345490783,0.3427081674000345,0.36817356154505265,0.3872999691114351,0.40420449651653395,0.4227499777592696,0.44074534415410277,0.46175083204902323,0.488397117099817,0.5280792843541908,0.8674249446847551,0.850909090909091,0.4090996296014303,0.0,0.9210840108401084,50,1163,8446,772030,no_split,narrow,individual,1,0.4622783660888672
0,0.0,0.48544871637801407,0.39958946601211814,0.42196789053377315,0.44067952240991837,0.45667845512527006,0.47285458978613865,0.4902974515713678,0.5115631519684727,0.538807848267962,0.5850352280131633,1.0218144325098837,0.9791959798994975,0.4983545438826106,0.0,0.9608311688311688,50,1163,8521,772030,no_split,narrow,individual,1,0.45950937271118164
1,1.0,0.5121623915891411,0.4145983525980679,0.4402294735096516,0.4604549736120803,0.48078343530311385,0.5000097730937652,0.5216383961826572,0.545965399928226,0.5774420219176091,0.624934119843473,1.337183553792885,0.9411827956989247,0.4983545438826106,0.0,0.9608311688311688,50,1163,8521,772030,no_split,narrow,individual,1,0.45950937271118164
0,0.0,0.5496734440269659,0.42909174723463295,0.4613689860205396,0.4871904482679339,0.5095894083556748,0.5315621787296205,0.5557695144279376,0.5866036026937101,0.6258879995780429,0.6932800792584035,1.3083120499092669,0.9827322404371585,0.5599619999119002,0.0,0.9739828080229226,50,1163,8704,772030,no_split,narrow,individual,1,0.45697617530822754
1,1.0,0.5713042030862554,0.44099989371869414,0.47734168241258695,0.5039985671936109,0.5313478954756695,0.5571494671776618,0.5839990744909245,0.615879250341481,0.6550442811546052,0.7190343842374993,1.2054785328321433,0.9643373493975904,0.5599619999119002,0.0,0.9739828080229226,50,1163,8704,772030,no_split,narrow,individual,1,0.45697617530822754
0,0.0,0.45279404779860366,0.3592200234167768,0.3821485375420914,0.4001617516422422,0.4177803432685732,0.43533187081119573,0.45497173998543755,0.4793990219649123,0.5118902694383762,0.5673753083908577,1.1835250003049085,0.9918840579710145,0.46735614296559247,0.0,0.9791237113402061,50,1163,8755,772030,no_split,narrow,individual,1,0.464566707611084
1,1.0,0.4840100308085023,0.3764070037264142,0.4060078760887899,0.42950856900584006,0.45060073852365085,0.47244161744529994,0.49584933815616505,0.5228869876741722,0.55478124626682,0.6032918538787075,1.0718891493171436,0.9645303867403315,0.46735614296559247,0.0,0.9791237113402061,50,1163,8755,772030,no_split,narrow,individual,1,0.464566707611084
0,0.0,0.46406462987786307,0.3658182283302547,0.3884954257418446,0.40830584686877847,0.4268053602980259,0.44560636827347544,0.46812148224917116,0.4937147291174547,0.5298342887527762,0.586715467913566,1.127831158252282,0.9784615384615385,0.4733500345386954,0.0,0.9495,50,1163,8785,772030,no_split,narrow,individual,1,0.474240779876709
1,1.0,0.4834092229212637,0.3856161226420857,0.41261839503913567,0.43378066779937774,0.45276887405584665,0.47216351818956337,0.49273236292858785,0.5159682617467115,0.547151438579711,0.5953287637182324,1.0666905127975925,0.918125,0.4733500345386954,0.0,0.9495,50,1163,8785,772030,no_split,narrow,individual,1,0.474240779876709
0,0.0,0.40553639327226465,0.32685134716056136,0.34383746169366847,0.35788289146045654,0.37127330331984765,0.38536509338518277,0.40107439691905494,0.4204617466687071,0.4504100876979411,0.5098525233318342,1.2145913000706519,0.9775531914893617,0.4303934880881805,0.0,0.9055526992287918,50,1163,8788,772030,no_split,narrow,individual,1,0.46964454650878906
1,1.0,0.4536429101050571,0.3439041073019921,0.37048189913141205,0.39411863104463635,0.4164507117301755,0.4383874801292421,0.46366300938691946,0.49170772350405995,0.5272164280306261,0.5789512205456946,1.2865316101730095,0.8382089552238806,0.4303934880881805,0.0,0.9055526992287918,50,1163,8788,772030,no_split,narrow,individual,1,0.46964454650878906
0,0.0,0.42981003399403,0.37466304497239233,0.3895885043859431,0.4004862714873159,0.41095992432090755,0.4208284503897753,0.4318448491172177,0.44503966683411794,0.46381882590034906,0.4931954758714198,0.8043556714868733,0.9923333333333333,0.4480497092429429,0.0,0.9590710382513661,50,1163,161753,772030,no_split,narrow,individual,1,0.4636988639831543
1,1.0,0.465701007870923,0.39407827708364157,0.41388669036339043,0.4306478782586549,0.4453898561646678,0.45907216077379853,0.4744218745578468,0.4917585998186106,0.513104113899971,0.5447140720154489,0.8017640433831489,0.9268817204301075,0.4480497092429429,0.0,0.9590710382513661,50,1163,161753,772030,no_split,narrow,individual,1,0.4636988639831543
0,0.0,0.4481292236384982,0.3745481225505671,0.3933330501983136,0.40873300002772534,0.42267622860424015,0.43731806371672993,0.45340635713157695,0.4727968494285113,0.49703877551570763,0.534109563396653,0.9120931761246286,0.994020618556701,0.46719568524643884,0.0,0.9804255319148936,50,1163,337788,772030,no_split,narrow,individual,1,0.46819186210632324
1,1.0,0.4875192761911668,0.3941514014179288,0.419921616466388,0.44080889691369696,0.4594358128319308,0.47983342430109777,0.4990886907851513,0.5204455408198224,0.5478009266225465,0.5918881077353836,0.9472151924997165,0.9659340659340659,0.46719568524643884,0.0,0.9804255319148936,50,1163,337788,772030,no_split,narrow,individual,1,0.46819186210632324
