,congruency,mean_rt,qu10_rt,qu20_rt,qu30_rt,qu40_rt,qu50_rt,qu60_rt,qu70_rt,qu80_rt,qu90_rt,qu100_rt,mean_acc,mean_rt_overall,nonconvergent_trials,accuracy_overall,n_posterior_draws,condition,id,slurm_id,split,spacing,estimation_level,number_parts,time_post_sampling_sec
0,0.0,0.4202315878877562,0.3302138909509407,0.3497233922745453,0.3668907891581982,0.38469330890279313,0.4019223210459357,0.4228907891581982,0.44794032731277317,0.4797008867378519,0.5323258178521205,1.0112584977148793,0.9863157894736843,0.4249613461723566,0.0,0.9824338624338624,50,1146,1108,772023,no_split,wide,individual,1,0.48868775367736816
1,1.0,0.42974142103445273,0.3346935233199538,0.3569270146237238,0.375741718292909,0.3939143430589054,0.41292270152418753,0.43404152064059137,0.4594074014642721,0.49125510447456355,0.5459196589355776,1.0623072105851137,0.9785106382978723,0.4249613461723566,0.0,0.9824338624338624,50,1146,1108,772023,no_split,wide,individual,1,0.48868775367736816
0,0.0,0.4408659705665403,0.3367070282411652,0.3600076271367286,0.3809354902753188,0.4022247764209667,0.42245559211979555,0.4450587410370206,0.4717447800906395,0.5069354902753188,0.5660949160759651,1.1265316518625272,0.9891005291005291,0.4544827979126835,0.0,0.9872105263157894,50,1146,1507,772023,no_split,wide,individual,1,0.47470688819885254
1,1.0,0.4679570406792858,0.3372837262559903,0.3676721611953194,0.3964033898861251,0.42201179339956013,0.44874549297426075,0.47901611387509807,0.5119960790346958,0.5570113529397396,0.6201935500397575,1.2965671355821113,0.9853403141361257,0.4544827979126835,0.0,0.9872105263157894,50,1146,1507,772023,no_split,wide,individual,1,0.47470688819885254
0,0.0,0.4518165974268721,0.35173795241256745,0.37452437414462736,0.3942752618802151,0.4132280523908358,0.43284555278183756,0.4557379524125674,0.4824152152319003,0.5167081555458424,0.574386673063568,1.1037123409563054,0.9897894736842106,0.4600170706966607,0.0,0.9878215223097113,50,1146,1538,772023,no_split,wide,individual,1,0.47094225883483887
1,1.0,0.4681746095514242,0.35766182697801246,0.3832190747507988,0.4053782840561398,0.4282708773912382,0.4515277258787875,0.47592500166843027,0.50522146695101,0.5414047599630235,0.600709007141193,1.0632550162652366,0.9858638743455498,0.4600170706966607,0.0,0.9878215223097113,50,1146,1538,772023,no_split,wide,individual,1,0.47094225883483887
0,0.0,0.4671378961113307,0.36610861358660496,0.3909259028050874,0.4116373498709637,0.4312832147373169,0.4517790173950005,0.4740250548082587,0.5017489826770495,0.5336347535725648,0.5846008907386173,0.9756341044979652,0.9945652173913043,0.4702128702593919,0.0,0.9925405405405405,50,1146,1582,772023,no_split,wide,individual,1,0.4684791564941406
1,1.0,0.4732547801693018,0.3718140429675656,0.39610669006193183,0.41748242285156195,0.43734683777756717,0.4586341044979651,0.48120779711135586,0.5077184242653059,0.5405380142697024,0.5928184319691188,1.0439639271331589,0.9905376344086021,0.4702128702593919,0.0,0.9925405405405405,50,1146,1582,772023,no_split,wide,individual,1,0.4684791564941406
0,0.0,0.43347955097038815,0.3336135439456358,0.3582769858871372,0.37890944826271616,0.3988031586991176,0.41964444338547924,0.44146309496930625,0.46619495159940805,0.49736388912820706,0.550410628605586,1.0004987578116848,0.9944502617801048,0.446748851750944,0.0,0.9916971279373368,50,1146,1583,772023,no_split,wide,individual,1,0.4681406021118164
1,1.0,0.4599490415899344,0.3372298877021993,0.3649806001251648,0.38861930150307994,0.4140876162936694,0.43930104126139385,0.4675259230453591,0.5007841387256957,0.544938234559623,0.6088943067443885,1.1961488725159364,0.9889583333333334,0.446748851750944,0.0,0.9916971279373368,50,1146,1583,772023,no_split,wide,individual,1,0.4681406021118164
0,0.0,0.5694205574267096,0.36499002009291864,0.4114725517520178,0.4522487151764715,0.4935488429914053,0.5376306378942134,0.5815484841770677,0.6369720073122768,0.7073105268749605,0.8149517202617059,1.4601163970760251,0.9901994696183558,0.5721183868658052,364.0,0.988001794124243,50,1146,1597,772023,no_split,wide,individual,1,0.46775341033935547
1,1.0,0.5746719473509383,0.37070288335499085,0.4185647710447266,0.4595208598117354,0.501515854534458,0.5441163970760251,0.5901915523675594,0.642790611361946,0.7082786915650309,0.8171137144562118,1.4765608112414144,0.9859216413838262,0.5721183868658052,364.0,0.988001794124243,50,1146,1597,772023,no_split,wide,individual,1,0.46775341033935547
0,0.0,0.40314923343629266,0.3206634643517091,0.34331038256047575,0.36218288957997713,0.37827578741853385,0.39512289106628784,0.41377585410532725,0.4326265308537152,0.4581620266216707,0.4925295213351976,0.8206334781226006,0.9978947368421053,0.4100422552388201,0.0,0.9975197889182058,50,1146,1601,772023,no_split,wide,individual,1,0.48001599311828613
1,1.0,0.4169717480561757,0.3204008071740759,0.34453979006236357,0.3651290338120099,0.38407094909219375,0.40309636056508413,0.425342905796274,0.45049140888643563,0.4829540970562692,0.530218816052779,0.9640963605650841,0.9971428571428571,0.4100422552388201,0.0,0.9975197889182058,50,1146,1601,772023,no_split,wide,individual,1,0.48001599311828613
0,0.0,0.48319494698776067,0.34284932525464656,0.37280017998163234,0.399835090504746,0.4253958459345025,0.4527406631883889,0.4846822243466206,0.5238404032258237,0.5759332544365223,0.6588534741483508,1.4409766876572112,0.9809473684210527,0.49234547330355016,0.0,0.9766315789473684,50,1146,1614,772023,no_split,wide,individual,1,0.4801020622253418
1,1.0,0.5014959996193397,0.34813889312973595,0.37986258024789143,0.41090594965919863,0.4398419377335603,0.4714937440583111,0.5096703390383591,0.550409025015884,0.6037077346865491,0.6958336193432338,1.3389311139983338,0.9723157894736842,0.49234547330355016,0.0,0.9766315789473684,50,1146,1614,772023,no_split,wide,individual,1,0.4801020622253418
0,0.0,0.4291061481777685,0.36604116729314046,0.3831181735627687,0.3969775238542279,0.40922592700836175,0.4221795937647062,0.43606320859101844,0.45125288259164076,0.47128876362416233,0.5001726256287986,0.7684322877542481,0.9990526315789474,0.43478189924835836,0.0,0.9985826771653543,50,1146,161753,772023,no_split,wide,individual,1,0.47734570503234863
1,1.0,0.44042793434475663,0.3677641606984551,0.38696493463659437,0.4024053931378606,0.4172495533456816,0.4319153119235565,0.4474654574857935,0.4661708835948217,0.48936184045247344,0.5241417218715233,0.8004322877542481,0.9981151832460733,0.43478189924835836,0.0,0.9985826771653543,50,1146,161753,772023,no_split,wide,individual,1,0.47734570503234863
0,0.0,0.46760782866326744,0.3576946020354141,0.3827013488954269,0.40457062351841805,0.4269196883418808,0.4492705214881525,0.47520932648104264,0.504339374572253,0.5420170572272852,0.6021648813713718,1.0622398552317027,0.9937234042553191,0.47032898877105384,0.0,0.9917678100263853,50,1146,1638,772023,no_split,wide,individual,1,0.47683215141296387
1,1.0,0.47300740814416303,0.3592658332070341,0.38711761736968536,0.4111031738656809,0.433159963146842,0.45525753250048673,0.4806926411958146,0.5100736605843773,0.5460598405932963,0.6067152672608317,1.3085578743499946,0.9898429319371728,0.47032898877105384,0.0,0.9917678100263853,50,1146,1638,772023,no_split,wide,individual,1,0.47683215141296387
0,0.0,0.39634203738390167,0.3179503003222252,0.3376576025690684,0.3529311907547533,0.36830488350437324,0.3843770648034602,0.4010976402257668,0.4207269766707609,0.4470879661208344,0.4879346516434592,0.9145913049091442,0.9908421052631579,0.40432300252763165,0.0,0.9894459102902374,50,1146,1657,772023,no_split,wide,individual,1,0.47299885749816895
1,1.0,0.4123461950001645,0.31887338785377034,0.3396006315129615,0.35699284452213015,0.37554144247417515,0.39492596633001936,0.4166318341597446,0.4426883847343948,0.4761153573216016,0.5297091780705698,0.9709014277461905,0.988042328042328,0.40432300252763165,0.0,0.9894459102902374,50,1146,1657,772023,no_split,wide,individual,1,0.47299885749816895
0,0.0,0.4657135270988228,0.37476694286274687,0.39541232613017635,0.41289698894255944,0.4304156524546217,0.44876685667529226,0.46829220801620014,0.4928925850606746,0.5269563588354471,0.5778949038113018,1.1292343352137155,0.9931914893617021,0.4751733357220357,0.0,0.9903174603174603,50,1146,1663,772023,no_split,wide,individual,1,0.4725944995880127
1,1.0,0.4845335674123727,0.378215099101834,0.40286714979996885,0.4252561599990076,0.4464970245396615,0.4688444106581974,0.49292535456349373,0.5209865833992089,0.5557833452195059,0.6095534204430912,1.1199698269154938,0.9874736842105263,0.4751733357220357,0.0,0.9903174603174603,50,1146,1663,772023,no_split,wide,individual,1,0.4725944995880127
0,0.0,0.49994223251896497,0.36692045963236913,0.4002429057665044,0.4273806969672348,0.4514037517507202,0.4798757866946216,0.5065134103835118,0.5409195069848031,0.5857330147710436,0.6593390335780304,1.409613313047073,0.9913978494623656,0.5168771853858679,0.0,0.9914745308310992,50,1146,1761,772023,no_split,wide,individual,1,0.4747192859649658
1,1.0,0.5337215770074935,0.37191034384666477,0.4102878457500909,0.44463436697511727,0.4761126239758204,0.5099423448658438,0.5477410257993284,0.5903471444778646,0.6437376940900092,0.7249523378620133,1.385613313047073,0.9915508021390375,0.5168771853858679,0.0,0.9914745308310992,50,1146,1761,772023,no_split,wide,individual,1,0.4747192859649658
0,0.0,0.4486827502360587,0.3160325100922854,0.34570369525152667,0.3704006392109942,0.3947713486839832,0.4192650074890515,0.44918263166409145,0.48494766670898776,0.5337742140441561,0.6140578344468688,1.2248047229725907,0.9865968586387435,0.46214243609993316,0.0,0.9824607329842932,50,1146,1768,772023,no_split,wide,individual,1,0.45601773262023926
1,1.0,0.47560212196380747,0.32193622987111065,0.3563964083106778,0.3904946363714917,0.4200205783123041,0.4534933928511732,0.4876514074327777,0.5262949180744718,0.5784594324340692,0.6579054036004001,1.4417830341962228,0.9783246073298429,0.46214243609993316,0.0,0.9824607329842932,50,1146,1768,772023,no_split,wide,individual,1,0.45601773262023926
0,0.0,0.37332868015517384,0.28943503992151826,0.3077943192353936,0.32433316123322,0.33967600755260696,0.3578415732794903,0.37668396448764013,0.39844015055080206,0.4276799860201236,0.47659223945718393,1.038959088925472,0.9841489361702128,0.37955750994240783,0.0,0.9819148936170212,50,1146,1813,772023,no_split,wide,individual,1,0.4588022232055664
1,1.0,0.3857863397296419,0.2898592751499019,0.3104322679832082,0.3281032360090198,0.34633827912027776,0.3666548829073408,0.38944102425295485,0.41568416864875835,0.4511985790409449,0.5086575949258251,1.0909130256011443,0.9796808510638297,0.37955750994240783,0.0,0.9819148936170212,50,1146,1813,772023,no_split,wide,individual,1,0.4588022232055664
0,0.0,0.3865709388147755,0.30183373651665557,0.32311044740439265,0.33937994133072485,0.35664290217608047,0.37330256131744627,0.39353440137531276,0.4155856718799204,0.44241755101086017,0.48544562718451706,1.0318427385480715,0.995578947368421,0.392039848608946,0.0,0.9930183727034121,50,1146,1821,772023,no_split,wide,individual,1,0.4546334743499756
1,1.0,0.39748012536754485,0.30429156810380464,0.32565440200261514,0.3441636767321981,0.3623758522674547,0.38139335479762326,0.40209637506536616,0.4283661761561284,0.46030395545818054,0.5104287042449541,0.998325663518049,0.9904712041884817,0.392039848608946,0.0,0.9930183727034121,50,1146,1821,772023,no_split,wide,individual,1,0.4546334743499756
0,0.0,0.43558966274457095,0.3374128198140977,0.36215687153732296,0.38385578296986383,0.40373530100970584,0.42342645235788934,0.44343343598858254,0.4684184735992408,0.49888789333191313,0.5481705280999151,1.2291343920258238,0.9969633507853403,0.44441157429631434,0.0,0.9958510638297873,50,1146,275,772023,no_split,wide,individual,1,0.4542064666748047
1,1.0,0.4535196018983845,0.3405362394878412,0.3664128198140977,0.39086187391954785,0.4138640861221304,0.43767847220613826,0.46253787819957104,0.4925233946823539,0.5293306304123666,0.5884393850533018,1.082526687664717,0.9947027027027027,0.44441157429631434,0.0,0.9958510638297873,50,1146,275,772023,no_split,wide,individual,1,0.4542064666748047
0,0.0,0.3735039139069253,0.2940080334999815,0.3132252606433626,0.3292652401046299,0.3446236252748309,0.3610132312399394,0.3779026364953478,0.3982735357021113,0.4262448122315322,0.46975568452544353,0.9621592509020246,0.9937234042553191,0.3840636424469106,0.0,0.9921485411140584,50,1146,3286,772023,no_split,wide,individual,1,0.4533505439758301
1,1.0,0.39456749940731933,0.29664219360726224,0.3197711880466098,0.3408219294451195,0.36130082185051215,0.38321228088958703,0.4039026364953478,0.42932522032168935,0.4595445447594715,0.508604779055783,0.8998098946820964,0.9905820105820106,0.3840636424469106,0.0,0.9921485411140584,50,1146,3286,772023,no_split,wide,individual,1,0.4533505439758301
0,0.0,0.44480941328569046,0.340259990677362,0.36461267768504424,0.386337492750751,0.40634850802208883,0.42756838030073663,0.45033619010605713,0.47688733205057426,0.5122370617741674,0.5713606610741484,1.049732109234509,0.9968253968253968,0.45830915808891814,0.0,0.9951451187335092,50,1146,3292,772023,no_split,wide,individual,1,0.4532921314239502
1,1.0,0.4717378516037078,0.3493842420248312,0.380260855100081,0.40834481264727934,0.43428715025680026,0.4593591636848262,0.4851322588504133,0.5161450200672079,0.5522076233027242,0.610479490199877,1.0294794901998772,0.9934736842105263,0.45830915808891814,0.0,0.9951451187335092,50,1146,3292,772023,no_split,wide,individual,1,0.4532921314239502
0,0.0,0.4467051312139585,0.3583362802612641,0.3817414223540052,0.3997064292099873,0.4180548309962121,0.43480731673901596,0.45466727561088355,0.47715208310816765,0.5047207555043134,0.5483673747189146,0.9479586408801634,0.996421052631579,0.4523982628619762,0.0,0.99501312335958,50,1146,337788,772023,no_split,wide,individual,1,0.45302796363830566
1,1.0,0.4580615875380147,0.36049661350828077,0.3839949297245658,0.40420628549550364,0.42436356503066675,0.44472963674149946,0.46705823624342596,0.49167902169061467,0.5237092944688525,0.5747225317517506,0.8969635321701037,0.9936125654450262,0.4523982628619762,0.0,0.99501312335958,50,1146,337788,772023,no_split,wide,individual,1,0.45302796363830566
0,0.0,0.39816413413738855,0.3120808931160936,0.3323303335289987,0.3486688251003798,0.3653020723695042,0.38180144753050516,0.4004386586533861,0.42193984119406996,0.4519744446509657,0.5032435772278496,1.0350694258400073,0.9931550802139038,0.41520982932455436,0.0,0.9891935483870967,50,1146,3487,772023,no_split,wide,individual,1,0.4532186985015869
1,1.0,0.4324398022975273,0.3180368193880948,0.3453404498357871,0.369969892221806,0.39402456896931876,0.41846074506807207,0.44614519404540076,0.4738476298916552,0.5074807484645661,0.5610861527949081,1.357444207081519,0.9851891891891892,0.41520982932455436,0.0,0.9891935483870967,50,1146,3487,772023,no_split,wide,individual,1,0.4532186985015869
0,0.0,0.4000281705633338,0.32154256321925007,0.3423267925859646,0.3593048187357695,0.37611449412458375,0.39140886495489235,0.4090287067197636,0.4289346500070148,0.4525886401478223,0.4878639010304477,0.7862919875910118,0.9989528795811519,0.4059960788156399,0.0,0.9975661375661375,50,1146,3580,772023,no_split,wide,individual,1,0.45386695861816406
1,1.0,0.4120916428594393,0.3223111002876168,0.34535492940959234,0.3648537263318039,0.38310572150667466,0.4021057215066747,0.42132692936305105,0.44537686829271017,0.47219926765429815,0.5140735106061153,0.829991989660336,0.9961497326203208,0.4059960788156399,0.0,0.9975661375661375,50,1146,3580,772023,no_split,wide,individual,1,0.45386695861816406
0,0.0,0.47025952598626636,0.33770306739186856,0.36406590664527516,0.38927535358981225,0.412766500917575,0.43922637416144944,0.46889324743947697,0.5062258656906681,0.5572307113553533,0.6431177739522899,1.4273155647303348,0.9892307692307692,0.48930689712341646,0.0,0.9844198895027624,50,1146,3625,772023,no_split,wide,individual,1,0.45353198051452637
1,1.0,0.508565905717646,0.34967760904821865,0.389074337023457,0.4233244204825993,0.4554030860031504,0.4873181202186291,0.5220597836009214,0.5611997169718679,0.6125088914887882,0.6916921556925911,1.3582976214886242,0.9795555555555555,0.48930689712341646,0.0,0.9844198895027624,50,1146,3625,772023,no_split,wide,individual,1,0.45353198051452637
0,0.0,0.5449836802559476,0.4220899301511389,0.45257610935387865,0.4782114988132347,0.5030600094431696,0.5277470273054178,0.5545210775831183,0.5855762667839225,0.6260322692962632,0.689899818555004,1.3198369612590641,0.9971727748691099,0.5517162729096146,0.0,0.996010498687664,50,1146,3754,772023,no_split,wide,individual,1,0.4561324119567871
1,1.0,0.5584843002614588,0.4300223806935989,0.46333437892866774,0.49003301740750355,0.5162114988132347,0.5423126606165735,0.570787798690115,0.6023433603485994,0.6440367168971295,0.7084893658035973,1.1868369612590641,0.9948421052631579,0.5517162729096146,0.0,0.996010498687664,50,1146,3754,772023,no_split,wide,individual,1,0.4561324119567871
0,0.0,0.4114240649956313,0.32849588585094464,0.3476947467360476,0.3652288484250117,0.3816987837362922,0.39750014845333637,0.4159373361314235,0.43726488842890504,0.465132402646189,0.5100808276431268,0.9909449161666712,0.9846560846560847,0.41860006365542934,0.0,0.9826385224274407,50,1146,3910,772023,no_split,wide,individual,1,0.45589613914489746
1,1.0,0.4257382939012286,0.3301170854891377,0.35037783090074903,0.36837675213999904,0.3868254469665127,0.40634243427920214,0.4289373361314235,0.4557437674553135,0.4905664722240301,0.5484954350130373,1.158476417285094,0.9806315789473684,0.41860006365542934,0.0,0.9826385224274407,50,1146,3910,772023,no_split,wide,individual,1,0.45589613914489746
0,0.0,0.406789198550888,0.32721692061753266,0.3463107231339889,0.36148893957130496,0.3778701794031223,0.39457154224463736,0.4114800625882601,0.43227229653620197,0.4594988601327702,0.5022652128363475,0.857491551992606,0.9927368421052631,0.4090334068552902,0.0,0.9920316622691293,50,1146,4222,772023,no_split,wide,individual,1,0.46008729934692383
1,1.0,0.4112894892777051,0.3308629062741375,0.35025267011361905,0.3669641969886879,0.3823161976251872,0.3985658374689145,0.4158661137393565,0.43748545634290364,0.46478292126466575,0.5082691666304859,0.8755599209646514,0.9913227513227513,0.4090334068552902,0.0,0.9920316622691293,50,1146,4222,772023,no_split,wide,individual,1,0.46008729934692383
0,0.0,0.4620558456905451,0.32734630391182884,0.3534363268528658,0.3765602567785242,0.4013083619195324,0.4272921006112813,0.4578405224890938,0.49402661475230986,0.5489787099195872,0.6419837840435614,1.4755486041049235,0.9718518518518519,0.4754851578598573,0.0,0.9594708994708995,50,1146,4264,772023,no_split,wide,individual,1,0.4569222927093506
1,1.0,0.4889144700291695,0.3338894436767359,0.36749432071357857,0.39762751509895317,0.42906240688992814,0.46040322050329296,0.49349432071357857,0.5371331083008722,0.5920747071286261,0.6783950096098648,1.4269257435373495,0.9470899470899471,0.4754851578598573,0.0,0.9594708994708995,50,1146,4264,772023,no_split,wide,individual,1,0.4569222927093506
0,0.0,0.4371835101221738,0.36931214097437576,0.38469283928033277,0.3979214152307932,0.41186493907769234,0.42575485929122536,0.44060193732283254,0.45902404885641346,0.4825207391897785,0.5200387026980439,0.8894285000119139,0.9911702127659574,0.44010294416472706,0.0,0.9894933333333333,50,1146,5281,772023,no_split,wide,individual,1,0.46077489852905273
1,1.0,0.4430379901540319,0.3724059131734796,0.3878893189614199,0.40275155844633725,0.4170231367584101,0.4316141935505418,0.44702974846132754,0.4662125597805439,0.49032539312811974,0.5310425084364344,0.8424959644142798,0.987807486631016,0.44010294416472706,0.0,0.9894933333333333,50,1146,5281,772023,no_split,wide,individual,1,0.46077489852905273
0,0.0,0.45358047494746034,0.3585782133903987,0.3834641209309482,0.40452395164269833,0.42516321659416195,0.4450042495311377,0.4644045769494855,0.4875402856442877,0.5170536844874184,0.5600374901717922,0.9209951098780789,0.9974603174603175,0.4657359348416402,0.0,0.9971733333333334,50,1146,5332,772023,no_split,wide,individual,1,0.4562065601348877
1,1.0,0.478087450540565,0.3623801495316003,0.39075768264629546,0.4153792359432831,0.4402743436269072,0.46515821098959564,0.49065215803053114,0.5199216387278264,0.557021295856166,0.610397699749436,1.0203715951813097,0.9968817204301075,0.4657359348416402,0.0,0.9971733333333334,50,1146,5332,772023,no_split,wide,individual,1,0.4562065601348877
0,0.0,0.44114586353218044,0.338501122842505,0.3655368244659495,0.3877715957324174,0.40714270621957527,0.42706132669178687,0.4505707237270104,0.47481858773962055,0.5070416545199964,0.55696263946785,1.0055208047807191,0.9952631578947368,0.45019908197406344,0.0,0.994089709762533,50,1146,5575,772023,no_split,wide,individual,1,0.45670008659362793
1,1.0,0.45930020104262326,0.3400205946004192,0.36744581212031524,0.3921738685167823,0.41506869607475677,0.44070696174697954,0.46799102786089264,0.5004008543006275,0.5386230644771738,0.6024581409696119,1.1177572740041493,0.992910052910053,0.45019908197406344,0.0,0.994089709762533,50,1146,5575,772023,no_split,wide,individual,1,0.45670008659362793
0,0.0,0.44657061641447876,0.34052634843852425,0.36229059759180915,0.3834921100077554,0.40394184428404856,0.42532978588744025,0.44832779417149354,0.4768686678117167,0.5155741555043035,0.582988389936923,1.1019756739885374,0.9829508196721312,0.45371952720056863,0.0,0.9802156334231806,50,1146,5731,772023,no_split,wide,individual,1,0.4542582035064697
1,1.0,0.4606783073806455,0.34359340413844236,0.36809791394634017,0.39141393239798233,0.41431710679548545,0.4389439785810109,0.4662528946056638,0.4969768301199989,0.5417400546045984,0.6068401126918095,1.1303198273077069,0.9775531914893617,0.45371952720056863,0.0,0.9802156334231806,50,1146,5731,772023,no_split,wide,individual,1,0.4542582035064697
0,0.0,0.427551518116373,0.3360262898602526,0.3594286002552798,0.378443630629121,0.3968498258595532,0.4148389702940157,0.4344011964144939,0.4570578751616444,0.48643428804590333,0.5319600979210971,0.9537618725577238,0.9963829787234042,0.4380192456969362,0.0,0.9948010610079575,50,1146,5761,772023,no_split,wide,individual,1,0.455826997756958
1,1.0,0.448431588475486,0.3421042941285158,0.36730781093189263,0.39101754071741524,0.4120456945537911,0.4347173747104339,0.4585999661358493,0.48630554596141323,0.5201463548356619,0.5727571440896134,0.9390934601448798,0.9932275132275132,0.4380192456969362,0.0,0.9948010610079575,50,1146,5761,772023,no_split,wide,individual,1,0.455826997756958
0,0.0,0.434556840211098,0.3096798041233876,0.33276993471864863,0.3560053466511938,0.37968781362488957,0.40464257136067855,0.4340556078875059,0.4707512156978674,0.5162689012174875,0.595103201963508,1.2905110712844239,0.9445153061224489,0.4349352947179007,384.0,0.9401041666666666,50,1146,5803,772023,no_split,wide,individual,1,0.4555842876434326
1,1.0,0.4353137492247034,0.3118001180878113,0.33412870729877403,0.3570053466511938,0.37881216084876146,0.40420445711695874,0.4330200780334988,0.46964031506271964,0.5181434877458362,0.6006561440399419,1.3781969867408874,0.9356930272108843,0.4349352947179007,384.0,0.9401041666666666,50,1146,5803,772023,no_split,wide,individual,1,0.4555842876434326
0,0.0,0.49130398791373864,0.3608958261601957,0.39370906925476234,0.42023641485363994,0.44545957052319424,0.470300191584487,0.49850249457323453,0.5322566671623938,0.5725965901299797,0.6445982114172849,1.373465069989786,0.9927083333333333,0.5053336606886077,0.0,0.990261780104712,50,1146,5815,772023,no_split,wide,individual,1,0.46697258949279785
1,1.0,0.5195110142295282,0.3620553548809536,0.3962575611902152,0.4285859294022785,0.4606103954048056,0.49405128771805357,0.5305141357736579,0.5739084280034831,0.6298951971069808,0.7148734932789692,1.2325965901299796,0.9877894736842106,0.5053336606886077,0.0,0.990261780104712,50,1146,5815,772023,no_split,wide,individual,1,0.46697258949279785
0,0.0,0.41348864468263835,0.34243564877925,0.360436667526966,0.37547012836606547,0.3897341953668223,0.40425259676214065,0.4201133672750061,0.43831328848072737,0.4602041267044131,0.49542785989406113,0.8151743008986129,0.9969473684210526,0.4230707505027442,0.0,0.9968783068783069,50,1146,6055,772023,no_split,wide,individual,1,0.47034120559692383
1,1.0,0.4327547936188086,0.34521337736108554,0.36669747778631073,0.38450182995892007,0.4024402784923588,0.42112682742887664,0.4403393583914245,0.46378943250964416,0.49330045822581564,0.5356237504924856,0.9956632904984437,0.9968085106382979,0.4230707505027442,0.0,0.9968783068783069,50,1146,6055,772023,no_split,wide,individual,1,0.47034120559692383
0,0.0,0.46806654261405106,0.3384878108333072,0.3657021645153724,0.3903611473701933,0.41517596864118445,0.44184964577516195,0.47093011643610866,0.5047270086851132,0.5523880296634827,0.6344740550372899,1.402996441611541,0.9833513513513513,0.4720161004721774,0.0,0.9781769436997318,50,1146,6109,772023,no_split,wide,individual,1,0.4681434631347656
1,1.0,0.47590263347086537,0.3443398024535438,0.3729034040052623,0.39738802966348274,0.42341889744916944,0.4491372542192069,0.47983013550817316,0.5168924637847778,0.5634906166888937,0.639822387603052,1.379453667172401,0.9730851063829787,0.4720161004721774,0.0,0.9781769436997318,50,1146,6109,772023,no_split,wide,individual,1,0.4681434631347656
0,0.0,0.3867116709821687,0.3186290505594661,0.3363852170459329,0.35103837752203754,0.3646227863261986,0.377461702938182,0.39165056453666286,0.4075020919188047,0.4299865616511195,0.4641967366682317,0.8672977214054634,0.9940314136125654,0.3972282299749646,0.0,0.9916971279373368,50,1146,6214,772023,no_split,wide,individual,1,0.46779489517211914
1,1.0,0.4076900152230064,0.321478313237862,0.3413523559331288,0.3584509606746592,0.3755530474059987,0.39363972702867045,0.41361710335645013,0.436917273133318,0.46690890985598116,0.5126419395308931,0.9393972572944169,0.989375,0.3972282299749646,0.0,0.9916971279373368,50,1146,6214,772023,no_split,wide,individual,1,0.46779489517211914
0,0.0,0.45401066789145483,0.3247557484153966,0.35372724181651766,0.38037103733324007,0.40535594121036994,0.4327571408317362,0.46354187484786463,0.4953757922570498,0.5381097234769117,0.6080752390515802,1.2191974108272718,0.9919576719576719,0.4606572816480685,0.0,0.9912169312169312,50,1146,6253,772023,no_split,wide,individual,1,0.473172664642334
1,1.0,0.46730389540468237,0.3319724520589974,0.3640374951471102,0.3921893334985963,0.41858365911842216,0.44611108692008195,0.47657564678479813,0.5113697408915151,0.5570902748567723,0.6264293737583402,1.2527842094085695,0.9904761904761905,0.4606572816480685,0.0,0.9912169312169312,50,1146,6253,772023,no_split,wide,individual,1,0.473172664642334
0,0.0,0.45338505588414574,0.3614073133396932,0.38439998070648207,0.40278448582946674,0.42144935334941924,0.4404471794287427,0.46059446468457516,0.48457887094242996,0.5155989076218923,0.561494537514503,1.0823354369539393,0.9943157894736843,0.4578711956824604,0.0,0.9943832020997375,50,1146,6262,772023,no_split,wide,individual,1,0.4715244770050049
1,1.0,0.462333847837852,0.3626310726646638,0.38673864609707587,0.40735633557382595,0.4273569884252245,0.4464174939995923,0.46859902455529606,0.4947139379642684,0.5278934163715758,0.5841500533604889,0.9495878322078434,0.9944502617801048,0.4578711956824604,0.0,0.9943832020997375,50,1146,6262,772023,no_split,wide,individual,1,0.4715244770050049
0,0.0,0.48275941982895987,0.37287429536548755,0.399547532510435,0.4248738815482492,0.44739642441525973,0.47011116449535895,0.4945345303943192,0.5221744353591905,0.5565857370959907,0.6073078301276971,1.1892257765614713,0.9988421052631579,0.49559447246053884,0.0,0.9977894736842106,50,1146,6361,772023,no_split,wide,individual,1,0.4744904041290283
1,1.0,0.5084295250921178,0.38636387707580655,0.42112261328458284,0.4478993908299167,0.4722339835250582,0.4965324802818736,0.5232242623455633,0.5531834859876688,0.5890927288903968,0.6427873954208849,0.966468363626981,0.9967368421052631,0.49559447246053884,0.0,0.9977894736842106,50,1146,6361,772023,no_split,wide,individual,1,0.4744904041290283
0,0.0,0.41465078859748666,0.34035368690239304,0.35718442232091263,0.37173755647099527,0.386185613000396,0.40220189947974383,0.4190572995814517,0.43959962255647617,0.4649093633815755,0.5037118445830017,0.9092816548082544,0.9906315789473684,0.4167440570324263,0.0,0.9900791556728232,50,1146,6427,772023,no_split,wide,individual,1,0.47800350189208984
1,1.0,0.41884840096173065,0.3430917070892212,0.3613803632868042,0.37620302944250944,0.3915692108040586,0.40724036469054203,0.4237075131074518,0.44412214827987384,0.46886539927246756,0.5096288859927592,0.9423803368034562,0.9895238095238095,0.4167440570324263,0.0,0.9900791556728232,50,1146,6427,772023,no_split,wide,individual,1,0.47800350189208984
0,0.0,0.4606917767416921,0.369943855990423,0.39048661349511754,0.40851929701572653,0.4258923685722815,0.44415968681271645,0.4644265643703391,0.4875532324529,0.5199278523893569,0.5711987265980824,1.0771032944364525,0.9885106382978723,0.46484870128069916,0.0,0.98752,50,1146,6583,772023,no_split,wide,individual,1,0.4927053451538086
1,1.0,0.4690278553626956,0.37183816517197404,0.3926559734192797,0.41294378280555766,0.4327078140883556,0.45240107472747004,0.47481573042508046,0.5007108529281759,0.5361190925338712,0.5919371175088349,1.0621987265980823,0.986524064171123,0.46484870128069916,0.0,0.98752,50,1146,6583,772023,no_split,wide,individual,1,0.4927053451538086
0,0.0,0.4377657806775013,0.34299540121780553,0.36543236224394443,0.3842637946353397,0.40228120523014266,0.42031920980705306,0.4409353150370764,0.4660501694437177,0.49916336049052473,0.5495853797829082,1.1221822496745768,0.9897354497354497,0.4509661066260626,0.0,0.9879679144385026,50,1146,6634,772023,no_split,wide,individual,1,0.49428415298461914
1,1.0,0.46445184502756576,0.34433661185519626,0.37153380366211075,0.3948157764338553,0.4196505879540621,0.443665893006003,0.4721118048288894,0.5059232748376984,0.5488193672547378,0.6101464377423819,1.092665893006003,0.9861621621621621,0.4509661066260626,0.0,0.9879679144385026,50,1146,6634,772023,no_split,wide,individual,1,0.49428415298461914
0,0.0,0.4517260803001843,0.3646294247161652,0.38325731682493536,0.40025526287673874,0.4175778942505217,0.4350311197206521,0.4555693869452551,0.4796133125552965,0.5124265692503281,0.558806296132298,0.9552504703309467,0.9954166666666666,0.4594219729242052,0.0,0.9931592689295039,50,1146,6844,772023,no_split,wide,individual,1,0.49332308769226074
1,1.0,0.46715815817976547,0.3720653700902047,0.3967298352344507,0.4174184902725458,0.43566509593110064,0.45415624453133263,0.4746484357334826,0.49895705933732293,0.5287800591930079,0.576572519065345,1.0845933891951294,0.9908900523560209,0.4594219729242052,0.0,0.9931592689295039,50,1146,6844,772023,no_split,wide,individual,1,0.49332308769226074
0,0.0,0.4237801678480635,0.3157784176177556,0.3424749755014741,0.3639336635689667,0.3834140424518738,0.40379409612807166,0.42797680665061066,0.4549626650722931,0.4915116495682488,0.5544930006604052,1.1432536977662406,0.9966315789473684,0.45306171372847137,0.0,0.9942931937172775,50,1146,7624,772023,no_split,wide,individual,1,0.4977741241455078
1,1.0,0.48203824350595825,0.3262536977662407,0.3669623307472925,0.4036590266290488,0.4394398494987619,0.4717793415400575,0.505953682616385,0.540655493001715,0.583912567358145,0.6462981583404194,1.3316730894974753,0.9919791666666666,0.45306171372847137,0.0,0.9942931937172775,50,1146,7624,772023,no_split,wide,individual,1,0.4977741241455078
0,0.0,0.4121682291076849,0.3153313962877034,0.3381114126378674,0.35800331895602555,0.3774255217615739,0.3962907773233837,0.4173010568629578,0.4421446969660381,0.4742846095996393,0.5269418073076944,1.0226801878981064,0.9926041666666666,0.419737774264753,0.0,0.9915706806282722,50,1146,7756,772023,no_split,wide,individual,1,0.5021600723266602
1,1.0,0.427386998844527,0.3191437390482637,0.3440360942823229,0.3661135304343453,0.3882139863133841,0.4110664388828813,0.43477502407805385,0.4632581918517176,0.5002965432348798,0.5571287793198938,0.9744526249178941,0.9905263157894737,0.419737774264753,0.0,0.9915706806282722,50,1146,7756,772023,no_split,wide,individual,1,0.5021600723266602
0,0.0,0.4228947467075355,0.3133983965575655,0.33774656288845684,0.3590134349758107,0.38051296889865593,0.40239601282725923,0.42734112198987484,0.4576704997307759,0.4966873701691755,0.5570370566533979,1.0571131424654263,0.9911702127659574,0.4316814936130172,0.0,0.9896514745308311,50,1146,7768,772023,no_split,wide,individual,1,0.5023751258850098
1,1.0,0.4406107283061554,0.318633173422718,0.34653787799788893,0.3709915467686206,0.396611134411325,0.4216618131434622,0.4499857373181138,0.4819168341723776,0.5230574097941108,0.5856437052895009,1.149323025955208,0.9881081081081081,0.4316814936130172,0.0,0.9896514745308311,50,1146,7768,772023,no_split,wide,individual,1,0.5023751258850098
0,0.0,0.41202572489238154,0.2947798693799145,0.3188218983473285,0.34187194303922924,0.3643959735551329,0.38743391071272987,0.4145177447471605,0.44563845661426066,0.48886467930909344,0.558198307923671,1.452415755427827,0.9821989528795811,0.41916886625363803,0.0,0.9793193717277487,50,1146,7807,772023,no_split,wide,individual,1,0.5005652904510498
1,1.0,0.42631200761489463,0.30000149648678825,0.3285055303931813,0.3522089797293261,0.3765293334390416,0.4015221321209279,0.42987034113745304,0.46700149648678824,0.5112194692377641,0.5826249147231405,1.3682768197161304,0.9764397905759162,0.41916886625363803,0.0,0.9793193717277487,50,1146,7807,772023,no_split,wide,individual,1,0.5005652904510498
0,0.0,0.40234287916212713,0.317716417430784,0.3357197989964942,0.35242665932848477,0.3680056019137408,0.38433301956520327,0.4036112824139376,0.4262552195600867,0.4602034738362008,0.5077962087163383,0.9524800326055753,0.9785416666666666,0.4062968260125208,0.0,0.9758005249343832,50,1146,7813,772023,no_split,wide,individual,1,0.5040264129638672
1,1.0,0.41031353392403186,0.3191552190616476,0.3388377470817248,0.35646994069016585,0.37449140866261693,0.39214986423275905,0.41299159486440196,0.43772833443467535,0.4716927464708122,0.523510155822019,1.0244356348765526,0.973015873015873,0.4062968260125208,0.0,0.9758005249343832,50,1146,7813,772023,no_split,wide,individual,1,0.5040264129638672
0,0.0,0.4024493325023901,0.3278912552603727,0.34774908406569316,0.3637765891424817,0.37894671175445427,0.39476798642848876,0.41044961093632043,0.4278511981237496,0.4508872991275476,0.4871309909613606,0.9048415854139449,0.9982198952879581,0.4105824738636467,0.0,0.9983769633507853,50,1146,7828,772023,no_split,wide,individual,1,0.5018942356109619
1,1.0,0.41871561522490325,0.3298927212510762,0.3539233143019243,0.3737396328842953,0.3923807575878614,0.41039543356657154,0.429485065390728,0.45050255062114514,0.477348553824219,0.5180728802842844,0.8087679864284887,0.9985340314136125,0.4105824738636467,0.0,0.9983769633507853,50,1146,7828,772023,no_split,wide,individual,1,0.5018942356109619
0,0.0,0.560519467222123,0.4034129152898479,0.43429034660216687,0.46340985559909814,0.49317442419044477,0.525146187651406,0.5610674826411012,0.6051744748272744,0.6656318143032539,0.7611423094103766,1.4968545441555838,0.9685714285714285,0.5673372813052031,0.0,0.9653191489361702,50,1146,7840,772023,no_split,wide,individual,1,0.5021083354949951
1,1.0,0.5742280131859631,0.40647616096112554,0.4426297574361172,0.4731208813152696,0.5072575115498389,0.5411749617499942,0.5791851011619048,0.6246816962596204,0.6872680981027085,0.7872544221822361,1.53052840710876,0.9620320855614973,0.5673372813052031,0.0,0.9653191489361702,50,1146,7840,772023,no_split,wide,individual,1,0.5021083354949951
0,0.0,0.4537653331657151,0.3580489569735257,0.38264947279766404,0.40341844572404517,0.4233892942637013,0.4434227346820158,0.46418506130525594,0.48655281137381706,0.5163405498513465,0.5629041668134629,0.9194561751003304,0.9990575916230366,0.460213605417024,0.0,0.9981151832460733,50,1146,7924,772023,no_split,wide,individual,1,0.5079748630523682
1,1.0,0.4666618776683329,0.3705180043755661,0.39536256441725065,0.4176065845876269,0.43808165951709316,0.4573876680787662,0.4780262019102801,0.5012780759589885,0.5300302825792127,0.5737284277044703,0.8916655655135295,0.9971727748691099,0.460213605417024,0.0,0.9981151832460733,50,1146,7924,772023,no_split,wide,individual,1,0.5079748630523682
0,0.0,0.43372045628027,0.3417195076982407,0.36633318886746413,0.3854454869865443,0.4035669744412949,0.42172168211044436,0.4413602513471734,0.46449416080134637,0.49482774028060333,0.540457926332195,0.9288043602865922,0.9976719576719577,0.4455736254099909,0.0,0.9975066312997347,50,1146,7939,772023,no_split,wide,individual,1,0.5030701160430908
1,1.0,0.45748984331167836,0.34809393882677164,0.37850208639687477,0.40270085961112145,0.4255482275450639,0.4479369420777633,0.47110278181196913,0.4982633776265044,0.5313200623349102,0.5759527809660983,0.9190953309611121,0.9973404255319149,0.4455736254099909,0.0,0.9975066312997347,50,1146,7939,772023,no_split,wide,individual,1,0.5030701160430908
0,0.0,0.45121286036747815,0.32580830112343084,0.35128284974936425,0.37244055315637997,0.39585537250273584,0.4211072464029387,0.4485682009588733,0.48373867834737566,0.5314750482556219,0.6158395667488639,1.4560819777010428,0.9808988764044944,0.46567215649525234,0.0,0.9732782369146006,50,1146,8026,772023,no_split,wide,individual,1,0.49968624114990234
1,1.0,0.4795843441208945,0.33114074848383523,0.36410509269279856,0.3951954228347347,0.42285320287994216,0.4530665702174215,0.48757720029666485,0.526688382395708,0.5758240943481333,0.6574405531563801,1.4574141084996095,0.965945945945946,0.46567215649525234,0.0,0.9732782369146006,50,1146,8026,772023,no_split,wide,individual,1,0.49968624114990234
0,0.0,0.47510794956226077,0.3678686325658836,0.3907689711462128,0.41082090833554047,0.4310139103362571,0.45234344797056214,0.47818750286821016,0.5069659556270536,0.5466386378753301,0.6091008976567195,1.1574492294485947,0.9827368421052631,0.47995389693068174,0.0,0.9804736842105263,50,1146,808,772023,no_split,wide,individual,1,0.49750638008117676
1,1.0,0.48479984429910283,0.37383723885079034,0.39797566690360947,0.4192200116903089,0.44073577710695544,0.4629499085838213,0.4883424209782015,0.5183242531373073,0.5593857607782151,0.6240845926068421,1.4040695987064848,0.9782105263157894,0.47995389693068174,0.0,0.9804736842105263,50,1146,808,772023,no_split,wide,individual,1,0.49750638008117676
0,0.0,0.4474785088113107,0.3134770730252059,0.3431258724900343,0.36956732282581056,0.39735301491322284,0.42450115658337284,0.45473575878929345,0.49047676857467004,0.5345333662529731,0.604617596332192,1.3928323744858566,0.9787434554973822,0.4611896739036514,0.0,0.9744647519582246,50,1146,8311,772023,no_split,wide,individual,1,0.49050188064575195
1,1.0,0.4748294266778028,0.3192024286513598,0.3494747700088096,0.37667700959103156,0.4063993920001728,0.4383799883840841,0.47544959618143373,0.5202244132107468,0.5842838997343025,0.6838993880376785,1.3845182386370887,0.9702083333333333,0.4611896739036514,0.0,0.9744647519582246,50,1146,8311,772023,no_split,wide,individual,1,0.49050188064575195
0,0.0,0.45642131545776077,0.3631207362147832,0.38275624616028747,0.3989126465588512,0.41615325923860497,0.435315984573734,0.4564396747172037,0.48216594432275806,0.5169113390182555,0.5773447016131499,1.1113402558019578,0.9861458333333334,0.4660318395979724,0.0,0.9824338624338624,50,1146,833,772023,no_split,wide,individual,1,0.5027680397033691
1,1.0,0.4759523806459328,0.3653379902685427,0.39091798156169794,0.4131384787661443,0.43468328201762896,0.4578930066694411,0.48261109476263253,0.5134332907886318,0.55082266328095,0.607398754619769,1.1336779707968105,0.9786021505376344,0.4660318395979724,0.0,0.9824338624338624,50,1146,833,772023,no_split,wide,individual,1,0.5027680397033691
0,0.0,0.5617289805308525,0.3601996607160837,0.39920597494424004,0.4364927520318403,0.4714496371932205,0.5131577308650546,0.5602687083924905,0.6172245335140643,0.697106072693543,0.8287116208549421,1.4903897398299586,0.9666304347826087,0.5811634352899594,0.0,0.9558918918918919,50,1146,837,772023,no_split,wide,individual,1,0.5036728382110596
1,1.0,0.600388917417248,0.35944364745689433,0.4089415565289798,0.4533854988321133,0.5032066257228581,0.5520267116558688,0.6133724538139238,0.6818367481147608,0.7732855928756475,0.9084137198637298,1.4876932993969116,0.9452688172043011,0.5811634352899594,0.0,0.9558918918918919,50,1146,837,772023,no_split,wide,individual,1,0.5036728382110596
0,0.0,0.38621459173851064,0.31006651707431715,0.32804967564674353,0.3436186046338868,0.35843409246146846,0.37446748438212024,0.39156574699214336,0.41091128016820505,0.43687732628899184,0.47723855759116296,0.7305314094337944,0.994869109947644,0.39526598137752966,0.0,0.9935263157894737,50,1146,8446,772023,no_split,wide,individual,1,0.5017001628875732
1,1.0,0.4044131529174907,0.31420447900850845,0.335408086945355,0.35446553364742855,0.37394086554428724,0.3926100017940331,0.4118183867829489,0.4352064672604,0.46708308729904163,0.5097803412247834,0.8431493681979393,0.9921693121693121,0.39526598137752966,0.0,0.9935263157894737,50,1146,8446,772023,no_split,wide,individual,1,0.5017001628875732
0,0.0,0.4184318012968857,0.32987003990094627,0.3506136136533424,0.36840630699348426,0.3861517698778248,0.40345801252274527,0.4220372882523361,0.44446276939883894,0.47399212893750575,0.5214865612673457,1.1196422045460392,0.9873015873015873,0.43073970712824894,0.0,0.9836702127659575,50,1146,845,772023,no_split,wide,individual,1,0.5014317035675049
1,1.0,0.4431792483160974,0.3332861836703219,0.35738068130486134,0.37799245692103967,0.3989338862186431,0.42299671579764686,0.4492902499495673,0.47999478265853024,0.5201682382019609,0.5781604820786563,1.0541904491865943,0.98,0.43073970712824894,0.0,0.9836702127659575,50,1146,845,772023,no_split,wide,individual,1,0.5014317035675049
0,0.0,0.4844199927046856,0.36176715941809956,0.38986281625721564,0.4135592606370244,0.43628036384817387,0.461056006271489,0.48916965341877866,0.5218866121737917,0.5655920253101481,0.6343604252798641,1.2797778125664627,0.9928795811518325,0.4942536876619741,0.0,0.9903684210526316,50,1146,8521,772023,no_split,wide,individual,1,0.5042116641998291
1,1.0,0.5041914428833609,0.36727259759850406,0.3999087647162764,0.4304921849687503,0.45691757378156866,0.48586430054408225,0.5175497879082859,0.552092820495484,0.5952882696982317,0.6659146299448647,1.216423215558626,0.9878306878306878,0.4942536876619741,0.0,0.9903684210526316,50,1146,8521,772023,no_split,wide,individual,1,0.5042116641998291
0,0.0,0.5477706861389972,0.40154123918411616,0.4355449177871705,0.46553665240263803,0.4934294573826098,0.5237390005453835,0.555914646539532,0.5939762099903467,0.644682687487758,0.7253676764923536,1.3095449177871705,0.9947826086956522,0.5550346798276365,0.0,0.9939247311827957,50,1146,8704,772023,no_split,wide,individual,1,0.5035014152526855
1,1.0,0.562144120459071,0.4114959303063041,0.4497453842345288,0.4821678834431133,0.5121870781805309,0.5427488570289315,0.5750251442044104,0.6129128338796331,0.6644909495114515,0.73585600036305,1.284637217103209,0.9930851063829788,0.5550346798276365,0.0,0.9939247311827957,50,1146,8704,772023,no_split,wide,individual,1,0.5035014152526855
0,0.0,0.42348685429577226,0.31894750458867943,0.34729701243353484,0.37126007672008604,0.39359317712222797,0.41427943452140764,0.43636550599316865,0.4614209470453871,0.4922898622847843,0.539314381859479,0.8657862106654254,0.9993478260869565,0.4361271249926156,0.0,0.9991780821917808,50,1146,8755,772023,no_split,wide,individual,1,0.49928832054138184
1,1.0,0.4489769029385779,0.32936753193866863,0.361699396173849,0.38869939617384897,0.41462139505736384,0.43817323811412623,0.46355409483555604,0.4936553086578183,0.5296501453135601,0.5814138298952305,0.9823139120238871,0.9990055248618784,0.4361271249926156,0.0,0.9991780821917808,50,1146,8755,772023,no_split,wide,individual,1,0.49928832054138184
0,0.0,0.4526660946764343,0.3483461074466225,0.3718305041106456,0.3924678000369791,0.4123470886695056,0.4332953800878661,0.45727552175075964,0.4848346949555554,0.5230263271562628,0.5828491698915521,1.0196631617192842,0.9859375,0.4562075009264343,0.0,0.9828125,50,1146,8785,772023,no_split,wide,individual,1,0.5031392574310303
1,1.0,0.45974890717643435,0.3499734949380584,0.3739226202679904,0.3952585913005136,0.4168444735936784,0.438600663736375,0.46403514766827114,0.49409856488800896,0.5333384728749812,0.5960501761320224,1.4430099576047692,0.9796875,0.4562075009264343,0.0,0.9828125,50,1146,8785,772023,no_split,wide,individual,1,0.5031392574310303
0,0.0,0.40942806590860337,0.30688833456165615,0.33232409073268954,0.3545830317064016,0.3747617527452129,0.39462889954476055,0.41770370775805166,0.44372195588080304,0.47620725009055853,0.5291483086739588,0.9858883345616561,0.9912169312169312,0.420790741445072,0.0,0.9908753315649867,50,1146,8788,772023,no_split,wide,individual,1,0.5032906532287598
1,1.0,0.4322138567450325,0.3087262644641082,0.33560958907616856,0.36085290293274636,0.38586179730374687,0.4108516803876702,0.43915373465676566,0.4738539370808523,0.5158600675667672,0.5855814584505058,1.0588516803876702,0.990531914893617,0.420790741445072,0.0,0.9908753315649867,50,1146,8788,772023,no_split,wide,individual,1,0.5032906532287598
0,0.0,0.47220309032489816,0.3580985357574074,0.382975110100591,0.40388847529317873,0.4254576066660313,0.4470853019261076,0.4710132763179447,0.5019871251862581,0.544544746152881,0.6124580229861946,1.3378516718575053,0.9688888888888889,0.48578378603580663,0.0,0.9613829787234043,50,1146,916,772023,no_split,wide,individual,1,0.5032432079315186
1,1.0,0.49950972982918473,0.3593993884950465,0.38509694936614935,0.4107349704207193,0.43836286465537255,0.4677812700717585,0.5028804086510505,0.5461169809128199,0.5985167036351314,0.6835857165349801,1.29415961198741,0.9537967914438503,0.48578378603580663,0.0,0.9613829787234043,50,1146,916,772023,no_split,wide,individual,1,0.5032432079315186
0,0.0,0.4100238173047816,0.31975931444492706,0.33942310990172136,0.35680125572766047,0.3738682516297971,0.39196416465849604,0.4125016825379469,0.4358012557276605,0.46836828093525923,0.5202075094140659,1.2423560178085302,0.9851578947368421,0.41986913903430223,0.0,0.9797900262467192,50,1146,985,772023,no_split,wide,individual,1,0.5045228004455566
1,1.0,0.4296629145767573,0.3217016855009337,0.3440610755087746,0.3647422286654267,0.38687107888112277,0.40848897805773476,0.4347612128648715,0.46448555064078834,0.504375890092182,0.5617097673458403,1.0278755177288972,0.9744502617801047,0.41986913903430223,0.0,0.9797900262467192,50,1146,985,772023,no_split,wide,individual,1,0.5045228004455566
0,0.0,0.4404977205972273,0.3446704432085124,0.3672872659101387,0.3862799576126486,0.4057456847711682,0.42360048708813597,0.4450607606286711,0.4696893045497673,0.5018542192804051,0.5542243297281536,1.2964478061902145,0.9932682926829268,0.458994019163228,0.0,0.9905527638190955,50,1146,275,772023,no_split,narrow,individual,1,0.5038707256317139
1,1.0,0.4786403466556122,0.34973411086419737,0.3779757174393439,0.4052557430889574,0.4313386558770697,0.45896145006868583,0.48929278418206146,0.5257999675205721,0.5676881218367458,0.6337429861113983,1.1806944103770043,0.9876683937823835,0.458994019163228,0.0,0.9905527638190955,50,1146,275,772023,no_split,narrow,individual,1,0.5038707256317139
0,0.0,0.4744669194211715,0.37430163035983066,0.3955130402750345,0.41509289789744847,0.434499486954839,0.45381900221075744,0.47657752842565004,0.5048037193423734,0.5418521770590017,0.6016810355715442,1.2171288685121038,0.9881904761904762,0.4815404158136679,0.0,0.9833838383838384,50,1146,808,772023,no_split,narrow,individual,1,0.5026335716247559
1,1.0,0.48952662141809933,0.38062629843341506,0.4061436293080908,0.42898443235576517,0.4499926816047587,0.4715659684042024,0.49605422335663146,0.5249867429081182,0.5610118231310314,0.6206220731406037,1.1637798729520183,0.9779569892473118,0.4815404158136679,0.0,0.9833838383838384,50,1146,808,772023,no_split,narrow,individual,1,0.5026335716247559
0,0.0,0.4583532404303094,0.34126661181033974,0.37260026807129004,0.39799038554573396,0.42145143003445673,0.44374805820489227,0.4679592472873431,0.49542154854806614,0.5335582794861048,0.5889755643717675,1.0861843326722447,0.9954,0.4727249270969761,0.0,0.99344,50,1146,833,772023,no_split,narrow,individual,1,0.503535270690918
1,1.0,0.48914971185888084,0.3403966248047957,0.37369428442971286,0.40546378652011833,0.4357741903855514,0.4688048323802997,0.5050471358558504,0.5447071213872203,0.593128977056599,0.6643300632853715,1.3067590421217135,0.9912,0.4727249270969761,0.0,0.99344,50,1146,833,772023,no_split,narrow,individual,1,0.503535270690918
0,0.0,0.5894366773399037,0.35398633006507224,0.40153804422419315,0.44193561142912985,0.48489740401526865,0.5321981586744078,0.5886177386402828,0.6567590880435129,0.748150235614177,0.9142346301747816,1.4827246293425482,0.9546596858638744,0.6124458098451951,0.0,0.9431382978723404,50,1146,837,772023,no_split,narrow,individual,1,0.4996013641357422
1,1.0,0.6362011844857931,0.3619401146626677,0.41933112151520824,0.4744723121415824,0.527367520769202,0.585948298574309,0.6513967876776398,0.7304230083975437,0.833224764724904,0.9828550577685089,1.476107786631093,0.9312432432432433,0.6124458098451951,0.0,0.9431382978723404,50,1146,837,772023,no_split,narrow,individual,1,0.4996013641357422
0,0.0,0.4204631127413332,0.33152462868941207,0.3518088986636157,0.36830425034159997,0.3840041845372737,0.40082743838281926,0.42107937527167966,0.4440041845372737,0.4745343500276745,0.5288338409149522,1.1331803154818427,0.9879166666666667,0.43598375166735814,0.0,0.9834224598930481,50,1146,845,772023,no_split,narrow,individual,1,0.5045557022094727
1,1.0,0.45235717295195593,0.33525761821761757,0.36025066957664637,0.3847116592066906,0.411135198432149,0.43621475994925873,0.46370783415524264,0.4941868145423269,0.5332208420664672,0.5897526181929076,1.113953707816359,0.9786813186813187,0.43598375166735814,0.0,0.9834224598930481,50,1146,845,772023,no_split,narrow,individual,1,0.5045557022094727
0,0.0,0.4666138421895315,0.3508388386112373,0.37436896699085676,0.39586979387135607,0.417746030213221,0.43907798439810963,0.4627433544533287,0.4962452528675484,0.5390754271935204,0.6144265110872955,1.367188903433824,0.9811173184357542,0.48808666265538614,0.0,0.9726775956284153,50,1146,916,772023,no_split,narrow,individual,1,0.49667835235595703
1,1.0,0.5086408597858032,0.3595520955360296,0.39210276050850446,0.42428583142771537,0.4557161020057642,0.4881129143773157,0.5214548455694323,0.5593886534283817,0.6076334529751235,0.6852762952264252,1.4076632405400242,0.9645989304812834,0.48808666265538614,0.0,0.9726775956284153,50,1146,916,772023,no_split,narrow,individual,1,0.49667835235595703
0,0.0,0.40235374025900467,0.3174921888823513,0.3372104939166521,0.35299142180344983,0.36855312900330917,0.38455775956097443,0.4023167251777869,0.42366430762828944,0.4529034426828582,0.5075150206076208,1.1905213742990695,0.9900564971751412,0.42655300349909464,0.0,0.983739837398374,50,1146,985,772023,no_split,narrow,individual,1,0.49837350845336914
1,1.0,0.4488616992985527,0.32226097737162746,0.35328984361583,0.3804143351942182,0.40870462638894195,0.43731635675172287,0.46526097737162747,0.4950134233429324,0.5315508299644189,0.5884099014090324,1.1058954714287013,0.9779166666666667,0.42655300349909464,0.0,0.983739837398374,50,1146,985,772023,no_split,narrow,individual,1,0.49837350845336914
0,0.0,0.4018862417394986,0.3149879767015367,0.3344881597162621,0.350731345264471,0.36569268472812577,0.38108829573555475,0.39985935616107704,0.42200821155821716,0.452697867826675,0.5097466794380867,1.1506077214799029,0.9915909090909091,0.4339997728399771,0.0,0.9775263157894737,50,1146,1108,772023,no_split,narrow,individual,1,0.4978957176208496
1,1.0,0.46170556437764476,0.3260527670169239,0.35925749947517743,0.39248775210390097,0.42263987848982615,0.4517326134002413,0.4806498153138785,0.5106332104543697,0.548000930951202,0.6058336507756926,1.098013503022053,0.965392156862745,0.4339997728399771,0.0,0.9775263157894737,50,1146,1108,772023,no_split,narrow,individual,1,0.4978957176208496
0,0.0,0.4465830380362288,0.3241979397648484,0.34979995568838673,0.3727807421962918,0.39427990178211125,0.41733530587086654,0.4444675638021405,0.4778238956019126,0.5250662362549915,0.605503486226873,1.2218044968319728,0.9812060301507538,0.4666821401808585,0.0,0.9725307125307125,50,1146,1507,772023,no_split,narrow,individual,1,0.49275660514831543
1,1.0,0.485911569636538,0.3295875848256748,0.3645146037437286,0.3947999556883867,0.4258000878333892,0.4578549512231998,0.4949547579071424,0.5375875848256748,0.5919546956409969,0.6765016224417126,1.3529152977843621,0.9642307692307692,0.4666821401808585,0.0,0.9725307125307125,50,1146,1507,772023,no_split,narrow,individual,1,0.49275660514831543
0,0.0,0.4529861766650703,0.3480605242884957,0.3722173591679839,0.3937066149962793,0.4141950203305061,0.43537599453051007,0.458956327412488,0.4864156321813675,0.5205867640478116,0.5799857967979349,1.2087842279374132,0.9881720430107527,0.4622131901200048,0.0,0.9875916230366493,50,1146,1538,772023,no_split,narrow,individual,1,0.49500155448913574
1,1.0,0.4709694375823405,0.3507066149962793,0.3770113196746662,0.40003588806977536,0.4235294012517115,0.44834846319945043,0.4764044314193074,0.5098505889182879,0.5520358880697754,0.6210842994324449,1.1038365129919745,0.9870408163265306,0.4622131901200048,0.0,0.9875916230366493,50,1146,1538,772023,no_split,narrow,individual,1,0.49500155448913574
0,0.0,0.4655122028390327,0.366980487457139,0.3873592943292944,0.4051283813352261,0.42257865178725257,0.442210001783153,0.46358417556207826,0.48965632130071257,0.5264133957849114,0.5912483126868621,1.5005894313371888,0.9947872340425532,0.4961969342656111,0.0,0.9862295081967213,50,1146,1582,772023,no_split,narrow,individual,1,0.501323938369751
1,1.0,0.5286055270082893,0.389218342942325,0.4275717729324893,0.46014986226024673,0.4885679539855996,0.5157157110300472,0.5439982065498263,0.5779258213572557,0.619321311126486,0.6806912857027946,1.2188025321381406,0.9771910112359551,0.4961969342656111,0.0,0.9862295081967213,50,1146,1582,772023,no_split,narrow,individual,1,0.501323938369751
0,0.0,0.44717709561184504,0.3446747462448679,0.36358376645587337,0.3799096361660384,0.3966680804587066,0.4154675579765413,0.4379990474210794,0.46610369665558604,0.5080704242675668,0.5886130559388081,1.4437967759153383,0.988140703517588,0.4800146190687284,0.0,0.9601503759398496,50,1146,1583,772023,no_split,narrow,individual,1,0.4990391731262207
1,1.0,0.5126879549083274,0.3680985313905091,0.4069115703580517,0.4399672319824812,0.4686571660658048,0.4972495437980729,0.5275577782609686,0.5596559574760943,0.6032248021267592,0.6698669520737381,1.3611627879500734,0.9323,0.4800146190687284,0.0,0.9601503759398496,50,1146,1583,772023,no_split,narrow,individual,1,0.4990391731262207
0,0.0,0.559130374540945,0.39358249273430934,0.42279846893845546,0.45018490116564247,0.4803585452307167,0.5123346325406918,0.5540667986750978,0.6024330552996568,0.671125384088025,0.7904419753697504,1.5364203242705374,0.9783606557377049,0.5747716851156163,0.0,0.9653846153846154,50,1146,1597,772023,no_split,narrow,individual,1,0.502981424331665
1,1.0,0.5905858278513336,0.40579199024273777,0.44969070145901396,0.4893279085395501,0.5267783346808407,0.5607237159280518,0.6010213426771401,0.6474179558795989,0.7067965420967034,0.8078513010396196,1.5347965420967034,0.9522651933701658,0.5747716851156163,0.0,0.9653846153846154,50,1146,1597,772023,no_split,narrow,individual,1,0.502981424331665
0,0.0,0.41252918443927855,0.3247998714803981,0.34490143201069995,0.3621917457012576,0.3780815104508551,0.39471021546366186,0.41302885731253053,0.4367380148910823,0.46566976200788424,0.5183394808867897,1.2404744181425982,0.9904918032786886,0.44017183449392333,0.0,0.9848533333333334,50,1146,1601,772023,no_split,narrow,individual,1,0.4965970516204834
1,1.0,0.4665187353272567,0.33211633459343975,0.36302080933723574,0.3922060303351979,0.42291215008927585,0.4510480782638274,0.48090448442103095,0.5158035903126382,0.557028922846307,0.6202228345475868,1.2640810255709982,0.9794791666666667,0.44017183449392333,0.0,0.9848533333333334,50,1146,1601,772023,no_split,narrow,individual,1,0.4965970516204834
0,0.0,0.4945098750414334,0.35608462403130764,0.3826913809735835,0.4078755359678548,0.43263715682246684,0.4584406437432793,0.4883320971661219,0.5273692167407608,0.5842872703787052,0.6816356364035899,1.4051761962220766,0.9894059405940594,0.5199823002516963,0.0,0.9794623655913979,50,1146,1614,772023,no_split,narrow,individual,1,0.4890601634979248
1,1.0,0.5502495349133029,0.37114996156253965,0.4158746640430191,0.4552986357618363,0.4911404724365327,0.5252645927302735,0.5665854802913948,0.6101069170471062,0.6671784626375804,0.7528188964568283,1.4906389073785504,0.9676470588235294,0.5199823002516963,0.0,0.9794623655913979,50,1146,1614,772023,no_split,narrow,individual,1,0.4890601634979248
0,0.0,0.4546237500927523,0.3367582284552394,0.3663805090267227,0.39026942027897904,0.4133382970445833,0.43672732009853277,0.4636362747619375,0.49266120657106927,0.531878520578407,0.5901558309595462,1.20890286114616,0.9972375690607734,0.4768440807121185,0.0,0.9961052631578947,50,1146,1638,772023,no_split,narrow,individual,1,0.49281930923461914
1,1.0,0.4970545321799841,0.34652500181642776,0.3859134625316044,0.4218867078885438,0.4539720894936017,0.4851594230819512,0.5171230158452964,0.5533340896117055,0.5983280802016596,0.659162064841367,1.2308662959381076,0.9950753768844222,0.4768440807121185,0.0,0.9961052631578947,50,1146,1638,772023,no_split,narrow,individual,1,0.49281930923461914
0,0.0,0.3969284412074614,0.30268427479884424,0.32470403660497027,0.342756758235054,0.35998429754877476,0.37679553228485013,0.39681255042096414,0.41996128953283285,0.45309769947074496,0.5107032527247568,1.2817785141487361,0.9888775510204082,0.4225148351235184,0.0,0.9817250673854447,50,1146,1657,772023,no_split,narrow,individual,1,0.49046874046325684
1,1.0,0.45117159630950227,0.3085947688688028,0.3410264830022766,0.3730628765441077,0.40621662017045607,0.438722236461044,0.4717842827614894,0.5046883163556054,0.5462197882970559,0.6086902813867759,1.1107079666673114,0.9737142857142858,0.4225148351235184,0.0,0.9817250673854447,50,1146,1657,772023,no_split,narrow,individual,1,0.49046874046325684
0,0.0,0.4610108499906833,0.3663508707306432,0.38686994192121055,0.40532920065134953,0.42203749954706304,0.4411389781729615,0.4631329843400004,0.488112977629865,0.5227833660596699,0.581528885632612,1.0375307647376901,0.9957948717948718,0.47893034628119474,0.0,0.9908121827411167,50,1146,1663,772023,no_split,narrow,individual,1,0.48821496963500977
1,1.0,0.49648965169149506,0.38247791801406356,0.4112707856210856,0.4361593754249266,0.4597354074001053,0.4827129509017076,0.5079913319397186,0.5371389781729615,0.5726710196206038,0.6251539144470335,1.1296305025592033,0.985929648241206,0.47893034628119474,0.0,0.9908121827411167,50,1146,1663,772023,no_split,narrow,individual,1,0.48821496963500977
0,0.0,0.4960530177445079,0.3658855601588401,0.39645581111755906,0.423524714389156,0.44862988467153225,0.474788634669061,0.5030856303542574,0.5370128880543894,0.5794180308815589,0.6515356595828379,1.3140167486078231,0.9922651933701657,0.5130151724406404,0.0,0.99,50,1146,1761,772023,no_split,narrow,individual,1,0.4934260845184326
1,1.0,0.5299773271367731,0.3709531111853569,0.407236331570779,0.4405622939733827,0.47186197421685255,0.5056608463057704,0.5413248923853947,0.5837942540320432,0.6362682805188328,0.7172330464716772,1.4790391303826564,0.9877348066298343,0.5130151724406404,0.0,0.99,50,1146,1761,772023,no_split,narrow,individual,1,0.4934260845184326
0,0.0,0.4549688036764973,0.3337074058746582,0.3601001096872823,0.3837560434308683,0.40529328280941035,0.4297788355746174,0.4565037182207801,0.48724759574029813,0.529585920693035,0.6022650163306017,1.4099213693246848,0.9832608695652174,0.4757783495049344,0.0,0.9767567567567568,50,1146,1768,772023,no_split,narrow,individual,1,0.48950910568237305
1,1.0,0.49636413677607655,0.3373692896924788,0.37118135944022007,0.4012120207311058,0.43410891174151817,0.47027273299443006,0.5093285854753734,0.5541444132945745,0.6067478832863059,0.6906236664654011,1.4369974008785025,0.9703225806451613,0.4757783495049344,0.0,0.9767567567567568,50,1146,1768,772023,no_split,narrow,individual,1,0.48950910568237305
0,0.0,0.37253622375394413,0.28715145694042254,0.30742812564596905,0.32279571047607136,0.33790927643128166,0.35490090774523875,0.3738000233818124,0.39628907850778666,0.425868039460236,0.47451305379625,1.0195220516387238,0.9860335195530726,0.394902052033453,0.0,0.9780748663101604,50,1146,1813,772023,no_split,narrow,individual,1,0.48769092559814453
1,1.0,0.41543273542848935,0.2906251955903847,0.3187970802430676,0.3439929034598352,0.36920428443596387,0.3972118971575286,0.42615982827480026,0.45929554283527463,0.5010570609685743,0.5626369904094922,1.1535893622827202,0.9707692307692307,0.394902052033453,0.0,0.9780748663101604,50,1146,1813,772023,no_split,narrow,individual,1,0.48769092559814453
0,0.0,0.40006563738033235,0.30617275412555695,0.32610462821154856,0.3435497995823832,0.36054307700171284,0.37875371261933943,0.3994020853997422,0.4249226041495841,0.4589361029674803,0.5193469992172618,1.2188779913690928,0.9862439024390244,0.42175413339578754,0.0,0.9759405940594059,50,1146,1821,772023,no_split,narrow,individual,1,0.4899146556854248
1,1.0,0.44409655391422126,0.3171820637619157,0.34737484576334676,0.37417505102718845,0.40097794963004413,0.4280466973394934,0.45470705782455617,0.4879366040822756,0.5279887664674382,0.5884116659166653,1.1776893796180075,0.9653266331658291,0.42175413339578754,0.0,0.9759405940594059,50,1146,1821,772023,no_split,narrow,individual,1,0.4899146556854248
0,0.0,0.3977205281120919,0.3117218133932496,0.3296631885673236,0.34431258037862916,0.36014194451028175,0.3771722961042555,0.39623827823950625,0.42134757882813706,0.4551209327617992,0.5083170940746414,1.030764823653856,0.9886187845303868,0.4076725388091649,0.0,0.9820744680851063,50,1146,3286,772023,no_split,narrow,individual,1,0.4881172180175781
1,1.0,0.41691004617414035,0.3208998593664673,0.34400655036091526,0.3632590300783461,0.38179548130716134,0.401607050653799,0.4230077276828718,0.4484151266997802,0.481318065956602,0.5316955551911733,0.9813432337521593,0.976,0.4076725388091649,0.0,0.9820744680851063,50,1146,3286,772023,no_split,narrow,individual,1,0.4881172180175781
0,0.0,0.47030506015095525,0.35298778869503983,0.38015813314308944,0.40234636133326696,0.4247738525943749,0.4483825098183001,0.47158831385628436,0.5029832530495514,0.5457829489942388,0.6133368444116607,1.3204415908793898,0.9911363636363636,0.49493509012098524,0.0,0.9882417582417582,50,1146,3292,772023,no_split,narrow,individual,1,0.4886019229888916
1,1.0,0.51799299051846,0.3613967694692141,0.3973528574534093,0.4313855489554919,0.466087990975625,0.49963308931200806,0.5358848099572847,0.5753674984800541,0.6250113675964142,0.6955533431589945,1.2852797327368302,0.985531914893617,0.49493509012098524,0.0,0.9882417582417582,50,1146,3292,772023,no_split,narrow,individual,1,0.4886019229888916
0,0.0,0.397882859239453,0.30634776646205547,0.3277711493890297,0.3456245206118078,0.3632497722353964,0.38119825280707936,0.40028918097237365,0.4238141554645104,0.45618631991699576,0.5108934737915309,1.0730363807053374,0.9956149732620321,0.42783004946099606,0.0,0.9914285714285714,50,1146,3487,772023,no_split,narrow,individual,1,0.4928755760192871
1,1.0,0.45611350689245356,0.31933841112177863,0.3546121561308483,0.3832478106253662,0.41197789537420837,0.4422129355098426,0.47283378888932914,0.5072064413960942,0.5480363807053372,0.6092153556522504,1.009784793200754,0.9874747474747475,0.42783004946099606,0.0,0.9914285714285714,50,1146,3487,772023,no_split,narrow,individual,1,0.4928755760192871
0,0.0,0.4063550753904311,0.33706288093761516,0.3527787509413819,0.3656646023984851,0.378572577274023,0.39174372926542816,0.40660819453071134,0.425765029315804,0.449871643276837,0.49095063084421975,1.0644817827616857,0.9903482587064677,0.4232869222475163,0.0,0.983248730964467,50,1146,3580,772023,no_split,narrow,individual,1,0.48375487327575684
1,1.0,0.440920607316294,0.34190893992759086,0.36540083854173755,0.3868017068125395,0.40803943473760906,0.4290321027850764,0.4517347589491912,0.4763784764325244,0.5062929066438406,0.5536762788460767,0.8741479485497864,0.9758549222797928,0.4232869222475163,0.0,0.983248730964467,50,1146,3580,772023,no_split,narrow,individual,1,0.48375487327575684
0,0.0,0.49076269111484777,0.3512853564067695,0.3796374841237742,0.40467713945696937,0.42933477547613697,0.4546892955614074,0.4841552901352488,0.521717092163618,0.5766730397688948,0.6697856344349796,1.4897058140001018,0.9651612903225807,0.5121703195827382,0.0,0.9509944751381215,50,1146,3625,772023,no_split,narrow,individual,1,0.4847750663757324
1,1.0,0.5347942905772133,0.3534917745802854,0.3881762677876718,0.42254883509648167,0.45785169232595485,0.4982849503929422,0.5444573264638394,0.5973564395131005,0.6618175032431299,0.7631768273219715,1.4445147685602904,0.9360227272727273,0.5121703195827382,0.0,0.9509944751381215,50,1146,3625,772023,no_split,narrow,individual,1,0.4847750663757324
0,0.0,0.516470292050806,0.39571562429072726,0.4276166417256514,0.45198000460164034,0.47603598966241123,0.49984900101587326,0.5261741501901038,0.5562617868742207,0.5922246384758375,0.6538428844795995,1.2041594668546174,0.9979775280898876,0.539246168242152,0.0,0.9968021680216802,50,1146,3754,772023,no_split,narrow,individual,1,0.48459315299987793
1,1.0,0.5604718539073856,0.4032624455077677,0.4451979805938228,0.48154857128415396,0.5141594668546174,0.546191024675062,0.578199719573513,0.6170911174839663,0.6653391009237954,0.7361662814416835,1.471526534458883,0.9957068062827226,0.539246168242152,0.0,0.9968021680216802,50,1146,3754,772023,no_split,narrow,individual,1,0.48459315299987793
0,0.0,0.4116960097273712,0.326895402526707,0.347396620359128,0.3646350542611659,0.38192115083681,0.399572541324825,0.41868606716216505,0.43970289505105353,0.4664979824278375,0.5126662948759237,0.9535937501780799,0.995531914893617,0.42340188228827963,0.0,0.9937823834196892,50,1146,3910,772023,no_split,narrow,individual,1,0.48473286628723145
1,1.0,0.4345165491642936,0.33489192008374824,0.35901243979781594,0.38147134169463826,0.40227767456053776,0.4238779903119131,0.445786016722947,0.47174265926943204,0.5016662948759237,0.5472091738904482,1.107185368330934,0.9921212121212121,0.42340188228827963,0.0,0.9937823834196892,50,1146,3910,772023,no_split,narrow,individual,1,0.48473286628723145
0,0.0,0.402453590061785,0.33315254963965957,0.3479652610730015,0.36096341285319034,0.3728824564160953,0.38710334970939503,0.40314291987419215,0.42281072090114713,0.4480735415985694,0.4908127652326687,1.0172576120387349,0.9940331491712707,0.4147552323996739,0.0,0.9856315789473684,50,1146,4222,772023,no_split,narrow,individual,1,0.4877185821533203
1,1.0,0.42594416337031654,0.3424900153528688,0.3632508470808912,0.38097346401141774,0.3985380579822013,0.4147698864252971,0.43340561536091343,0.4535432208280203,0.4820245357900746,0.5236556802817123,0.8304204174842728,0.9779899497487438,0.4147552323996739,0.0,0.9856315789473684,50,1146,4222,772023,no_split,narrow,individual,1,0.4877185821533203
0,0.0,0.4802718088850627,0.32726567306021287,0.3623062437678628,0.3911448721616199,0.4170980383069726,0.44608840694297147,0.47745019468559036,0.517036560835272,0.573454528553937,0.6722098190939597,1.458837678562063,0.9780808080808081,0.5090008364402112,0.0,0.9668513853904283,50,1146,4264,772023,no_split,narrow,individual,1,0.487529993057251
1,1.0,0.5375854970227206,0.33130634331212355,0.3718726933094396,0.4109055627851161,0.45276762717075547,0.501460923402795,0.5532287336612651,0.6126229320349059,0.6851129449830715,0.7886824717342186,1.4644004890210836,0.955678391959799,0.5090008364402112,0.0,0.9668513853904283,50,1146,4264,772023,no_split,narrow,individual,1,0.487529993057251
0,0.0,0.4259644429268738,0.3412335599406755,0.3625752012123493,0.380371710945243,0.39779971205159326,0.4150184724438488,0.4326709747879783,0.45390456608915875,0.47890906227135477,0.5221290398290708,0.9923245607451981,0.9972486772486773,0.44095136522961137,0.0,0.9966304347826087,50,1146,5281,772023,no_split,narrow,individual,1,0.4877772331237793
1,1.0,0.4567755457615521,0.3466268742152484,0.37405665446945263,0.3974650440816319,0.42103432461914725,0.4438117925991058,0.4694523162560254,0.49714344275705136,0.5315060751883681,0.5845452016924607,1.0735772819874376,0.9959776536312849,0.44095136522961137,0.0,0.9966304347826087,50,1146,5281,772023,no_split,narrow,individual,1,0.4877772331237793
0,0.0,0.44674133256480564,0.35183992190204266,0.3737714630010255,0.39149380370902853,0.40947857071085997,0.42869494407252573,0.4494341281351126,0.47432942560280467,0.5078892902873826,0.5635920735944665,0.9523831834703347,0.9981521739130435,0.472858834914982,0.0,0.9948648648648649,50,1146,5332,772023,no_split,narrow,individual,1,0.48770594596862793
1,1.0,0.4986955039065542,0.375492723337108,0.41106480934261924,0.4404414347043917,0.4660239296832144,0.4897162766323434,0.515856617593006,0.5443029019837008,0.5815928687326049,0.6300109643820563,1.1841444108605588,0.9916129032258064,0.472858834914982,0.0,0.9948648648648649,50,1146,5332,772023,no_split,narrow,individual,1,0.48770594596862793
0,0.0,0.4392906654916487,0.3340208853232246,0.36052353442598956,0.38220106606419524,0.40298593164869057,0.4236419350546937,0.4449352015257465,0.46999533351360967,0.5045773549322432,0.56390830132223,1.1440052707455222,0.9974619289340102,0.4624910080661639,0.0,0.9962051282051282,50,1146,5575,772023,no_split,narrow,individual,1,0.4903585910797119
1,1.0,0.48617218675621304,0.34161993710512695,0.37961889638647744,0.41327716631357514,0.4453832400064225,0.47722540419504966,0.5090573232900959,0.5425721576277942,0.5828506342190958,0.6386278102826922,1.1620295093774053,0.9949222797927462,0.4624910080661639,0.0,0.9962051282051282,50,1146,5575,772023,no_split,narrow,individual,1,0.4903585910797119
0,0.0,0.4433743139757109,0.324160516502684,0.35367714613641216,0.3761853395965955,0.39860987815277565,0.4214711680885157,0.4454032042466431,0.47593389948508263,0.5165510231922722,0.5897631809669949,1.238040569534566,0.9941968911917098,0.46797106981794423,0.0,0.9918367346938776,50,1146,5731,772023,no_split,narrow,individual,1,0.48970746994018555
1,1.0,0.49182621493126594,0.32878062134424185,0.3672258954337599,0.4042836376571233,0.4403344626193059,0.4760660477242735,0.5130049447481124,0.5538096953444823,0.6034223166588739,0.6721997667347968,1.2641184692991956,0.9895477386934673,0.46797106981794423,0.0,0.9918367346938776,50,1146,5731,772023,no_split,narrow,individual,1,0.48970746994018555
0,0.0,0.4326941672051473,0.34895372924619283,0.36707047787501607,0.38285334819274697,0.39738194696870527,0.41302229694109344,0.43104380445549995,0.4534281339442983,0.48242978990786106,0.5388394737937621,1.0194396778900416,0.9966304347826087,0.46335009570887903,0.0,0.9891553133514986,50,1146,5761,772023,no_split,narrow,individual,1,0.4891166687011719
1,1.0,0.494173542947604,0.37252031244072686,0.4085091835765545,0.4371750672814634,0.46229871621020036,0.48702229694109345,0.5118627618493119,0.5380654195232895,0.5708858500139777,0.6212070490543319,1.1963286740074937,0.981639344262295,0.46335009570887903,0.0,0.9891553133514986,50,1146,5761,772023,no_split,narrow,individual,1,0.4891166687011719
0,0.0,0.45586156692925495,0.3171059496692065,0.3413618944719183,0.3643147356672873,0.3894015240933837,0.41738208690231954,0.4501600767482429,0.4916074002633365,0.5500204562071581,0.6431682087844623,1.4354253757155697,0.9369047619047619,0.45769852395596805,0.0,0.9207588075880759,50,1146,5803,772023,no_split,narrow,individual,1,0.4878685474395752
1,1.0,0.4592338910230716,0.32402015468814394,0.3501075735557405,0.37348610992336617,0.39802331831734106,0.4252073085608642,0.455806171663797,0.49543296387460517,0.5470913346904008,0.6353846318325563,1.4810089957633448,0.9072636815920399,0.45769852395596805,0.0,0.9207588075880759,50,1146,5803,772023,no_split,narrow,individual,1,0.4878685474395752
0,0.0,0.5101130925777354,0.3543662009306017,0.38334672692457994,0.4083954640403167,0.43361107268441257,0.4634937103248222,0.49895070865735247,0.5443494023018859,0.6164019791393155,0.7342020654733674,1.4621866782889534,0.9824875621890548,0.5397860533552432,0.0,0.9703359173126614,50,1146,5815,772023,no_split,narrow,individual,1,0.4876515865325928
1,1.0,0.5718519948406146,0.37554246859695956,0.4286289260109759,0.4738155385366192,0.5114470254114856,0.5493662009306017,0.5921501321832432,0.6335280264850569,0.6934873161455537,0.7901870255157023,1.4931179809496005,0.9572043010752688,0.5397860533552432,0.0,0.9703359173126614,50,1146,5815,772023,no_split,narrow,individual,1,0.4876515865325928
0,0.0,0.4150892158169878,0.3418155426180621,0.3603126318126048,0.3753197881428671,0.3894506548246428,0.4038971390382873,0.4192963628740013,0.4368159182055962,0.4615810232728512,0.49910574657697176,0.907919999527665,0.9969662921348315,0.4410099438578904,0.0,0.9927520435967302,50,1146,6055,772023,no_split,narrow,individual,1,0.48795270919799805
1,1.0,0.46542205809747056,0.3519959257976646,0.3809953856047921,0.4074048265930779,0.4323789407304538,0.4558186242652001,0.48095348610376804,0.5083746243230011,0.5409308313463936,0.589178701689021,0.9070037159679227,0.9887830687830688,0.4410099438578904,0.0,0.9927520435967302,50,1146,6055,772023,no_split,narrow,individual,1,0.48795270919799805
0,0.0,0.48648648608439843,0.34358041756121416,0.3715655512747229,0.39810825919084103,0.4254109536199416,0.45247234012932264,0.4833698791365246,0.5218085229974184,0.5779358098633276,0.6727629326580858,1.459040978755977,0.973265306122449,0.49894646768359546,0.0,0.9675409836065574,50,1146,6109,772023,no_split,narrow,individual,1,0.4872727394104004
1,1.0,0.5133120935273756,0.34990111836036825,0.3853616913053037,0.4164940397369269,0.44990718628431386,0.4843097576337807,0.5202069987357165,0.5639106960716305,0.6233398883559033,0.7151320165792602,1.4813616010302149,0.9609411764705882,0.49894646768359546,0.0,0.9675409836065574,50,1146,6109,772023,no_split,narrow,individual,1,0.4872727394104004
0,0.0,0.39928396020288975,0.3201627816498258,0.3376561841275344,0.3525082592661542,0.36684336692431796,0.3823974686201008,0.39998300391177716,0.42110005814915713,0.449272304779405,0.4970518125267354,1.1177987697015428,0.994811320754717,0.4272092504612491,0.0,0.9863309352517986,50,1146,6214,772023,no_split,narrow,individual,1,0.493161678314209
1,1.0,0.45608808721623534,0.3345999973595012,0.3681622344861827,0.39587411025328095,0.4208610262602303,0.44569367090037376,0.4724750624035952,0.49987578052095555,0.535655242915489,0.5862104433642101,1.01494575172707,0.9775609756097561,0.4272092504612491,0.0,0.9863309352517986,50,1146,6214,772023,no_split,narrow,individual,1,0.493161678314209
0,0.0,0.4690621730695368,0.3339002030033002,0.3633607625039462,0.3898414406112829,0.4139536862468404,0.4409274419221875,0.47071201852828776,0.5091172524739151,0.5569344836753737,0.6364374561245847,1.3764655629781646,0.9838297872340426,0.4782752948597056,0.0,0.9820689655172414,50,1146,6253,772023,no_split,narrow,individual,1,0.48941850662231445
1,1.0,0.48743966997373583,0.3377989291253436,0.3704040073829625,0.3989138164297378,0.42727838053131467,0.4582772479252181,0.4942596797618737,0.5362576955730634,0.5889119453012286,0.674348875708,1.4032075603290781,0.9803174603174604,0.4782752948597056,0.0,0.9820689655172414,50,1146,6253,772023,no_split,narrow,individual,1,0.48941850662231445
0,0.0,0.4564670224584037,0.3499635838092825,0.373254948690972,0.39494500355934464,0.4141283893374559,0.43543060570396075,0.4591217452981551,0.487474195628365,0.5260346322770129,0.5897452651871905,1.2321789710478064,0.9933701657458563,0.4768239531574188,0.0,0.9901630434782609,50,1146,6262,772023,no_split,narrow,individual,1,0.4892702102661133
1,1.0,0.4965277203045939,0.3555963886360246,0.3888127733450069,0.4206545517713496,0.4508896925425187,0.480435740357049,0.5099970340815041,0.5489083164220463,0.5922710720011855,0.6565421535139865,1.3047360387557505,0.9870588235294118,0.4768239531574188,0.0,0.9901630434782609,50,1146,6262,772023,no_split,narrow,individual,1,0.4892702102661133
0,0.0,0.49468000796900435,0.3956635261538051,0.4197967647370513,0.44001328454711075,0.4600511828902683,0.47983008723390397,0.5002203362397789,0.5253669219990741,0.5591245503249589,0.612960671530473,1.1961266153988295,0.9963636363636363,0.5122471818820479,0.0,0.9942934782608696,50,1146,6361,772023,no_split,narrow,individual,1,0.489612340927124
1,1.0,0.5303966930518773,0.4049855082605608,0.43701365078108534,0.46405378555587434,0.4906128934674201,0.5179481674138435,0.5441276387383438,0.5746797813465706,0.6146573166199817,0.6691342383242349,1.138151419439505,0.9921546961325967,0.5122471818820479,0.0,0.9942934782608696,50,1146,6361,772023,no_split,narrow,individual,1,0.489612340927124
0,0.0,0.41533327255887886,0.31137874261565796,0.33658276635158374,0.35893089437983255,0.3798547006504092,0.4008753857018686,0.42394362704013855,0.4479395273532515,0.48304572141183844,0.5382245007972154,0.997720043766035,0.9963934426229508,0.4261397704018469,0.0,0.9956315789473684,50,1146,6427,772023,no_split,narrow,individual,1,0.4914555549621582
1,1.0,0.4361782937788172,0.31959146569714403,0.3495719388402792,0.3736818153416496,0.3973710179086129,0.42063379713134474,0.4465827692063506,0.4749873504878227,0.5127384143970426,0.571949326514188,1.0423534060615687,0.9949238578680203,0.4261397704018469,0.0,0.9956315789473684,50,1146,6427,772023,no_split,narrow,individual,1,0.4914555549621582
0,0.0,0.47063928885683887,0.37104641574358704,0.39219626289211085,0.4107183992878612,0.4305626949900743,0.45104468964181277,0.47365502722795205,0.5014282968707857,0.5387302399789413,0.5949105491913318,1.0320446896418127,0.9894240837696335,0.47820841123731106,0.0,0.9855408970976254,50,1146,6583,772023,no_split,narrow,individual,1,0.4919309616088867
1,1.0,0.4858983174855567,0.37681001456639956,0.40235737912758684,0.4235317168866367,0.44551852471536246,0.468905476937162,0.49364935542554944,0.5219179342106806,0.5582140615936098,0.6159096977851327,1.0391172002819744,0.9815957446808511,0.47820841123731106,0.0,0.9855408970976254,50,1146,6583,772023,no_split,narrow,individual,1,0.4919309616088867
0,0.0,0.44317451310031697,0.3535536959101957,0.3720778092945485,0.3882484505977028,0.40393607982283475,0.42196762904060137,0.44182964591472773,0.4650440254224675,0.4982286224071588,0.5569498807767725,1.1940054865371852,0.987897435897436,0.46743630797211183,0.0,0.9764615384615385,50,1146,6634,772023,no_split,narrow,individual,1,0.49015307426452637
1,1.0,0.49169810284390675,0.3637813880824318,0.39343539931588245,0.4218646939938186,0.4492074719469468,0.4768077516769435,0.5051620406035391,0.5367111642398208,0.576687564683581,0.6353023734104968,1.1689416899154577,0.965025641025641,0.46743630797211183,0.0,0.9764615384615385,50,1146,6634,772023,no_split,narrow,individual,1,0.49015307426452637
0,0.0,0.456745250210112,0.36172006084747954,0.38388244509286507,0.4021978294083273,0.4203969791639657,0.43810964926457113,0.4576691907918546,0.48166732842025356,0.5146235169329513,0.5691597721007101,1.233375840948549,0.9912631578947368,0.49109786635046293,0.0,0.9846933333333333,50,1146,6844,772023,no_split,narrow,individual,1,0.4965097904205322
1,1.0,0.526378931575688,0.37075671386344455,0.40906285933879344,0.4447567138634445,0.478964235873224,0.513066130644499,0.5487762253728419,0.5870674417276327,0.6316330250700005,0.6937176354134063,1.2416292959464361,0.977945945945946,0.49109786635046293,0.0,0.9846933333333333,50,1146,6844,772023,no_split,narrow,individual,1,0.4965097904205322
0,0.0,0.4418578348930856,0.3456949484276143,0.36698664439313466,0.3849592441761048,0.4026805441981111,0.4216026471259184,0.4410813856897414,0.46560177383662965,0.5006228539648351,0.5604734038057763,1.3221708106315067,0.987103825136612,0.46715624319552307,0.0,0.975149863760218,50,1146,7624,772023,no_split,narrow,individual,1,0.4881906509399414
1,1.0,0.4923171601484907,0.3520758390074606,0.3832271731464833,0.4144588008565135,0.44222605326979714,0.47214224139509114,0.5058029337970918,0.5444408233192234,0.5893784526182478,0.6533564660210015,1.3167694335111533,0.9632608695652174,0.46715624319552307,0.0,0.975149863760218,50,1146,7624,772023,no_split,narrow,individual,1,0.4881906509399414
0,0.0,0.40060689932236354,0.32520595191731416,0.34119540363443446,0.35377813692335736,0.3654980839332025,0.3781990444137365,0.3924980839332025,0.41153011467261597,0.4404617438288579,0.5042037924699917,1.1104653112099505,0.9916577540106952,0.4294701461354491,0.0,0.9756135770234987,50,1146,7756,772023,no_split,narrow,individual,1,0.4830145835876465
1,1.0,0.457008039778546,0.3352043866567163,0.3705398155517161,0.4022939233572599,0.4285110009450382,0.4523051159690711,0.47620560469556933,0.5001890960535764,0.5294497595353304,0.5757134112883696,1.0368143696554772,0.9603061224489796,0.4294701461354491,0.0,0.9756135770234987,50,1146,7756,772023,no_split,narrow,individual,1,0.4830145835876465
0,0.0,0.42441447747151245,0.3199419472592035,0.3452673515019687,0.3668715360967118,0.387901009661093,0.4084922252918237,0.4303038006361858,0.45639484849525513,0.49204648779850546,0.5474948006238006,1.0550567455144642,0.9954166666666666,0.4398665151274839,0.0,0.9933689839572193,50,1146,7768,772023,no_split,narrow,individual,1,0.48119044303894043
1,1.0,0.4561675658414758,0.32310598573612426,0.35484831624901375,0.3834557051307365,0.4103784894879947,0.4381082210891184,0.46766105940945074,0.5026616821867583,0.5479419472592035,0.61033376170111,1.0324385165796302,0.9912087912087912,0.4398665151274839,0.0,0.9933689839572193,50,1146,7768,772023,no_split,narrow,individual,1,0.48119044303894043
0,0.0,0.40634620559345735,0.30348932349427543,0.32518483311219226,0.3441173331196366,0.36289646438886614,0.38090545880757054,0.4026840729587719,0.42777926319273707,0.4687961666976651,0.533543251947948,1.2241848331121923,0.9818181818181818,0.43536913929479704,0.0,0.9639784946236559,50,1146,7807,772023,no_split,narrow,individual,1,0.4774801731109619
1,1.0,0.4647058344415568,0.31080211425442955,0.34380000372072955,0.3765802225831844,0.40891544787843576,0.4434620530118105,0.48124754320122404,0.5222656196477461,0.5706362717107466,0.6454573583754011,1.2102753768002712,0.9459459459459459,0.43536913929479704,0.0,0.9639784946236559,50,1146,7807,772023,no_split,narrow,individual,1,0.4774801731109619
0,0.0,0.4002426873109352,0.3173741504540974,0.3362783045477007,0.3514091212181343,0.3667118046171994,0.3837530444177381,0.4022789458380781,0.4243169148662718,0.4542866150256755,0.5034096555832452,1.2332544430520587,0.9929670329670329,0.41647490276860766,0.0,0.9880886426592798,50,1146,7813,772023,no_split,narrow,individual,1,0.4760570526123047
1,1.0,0.4329791665300401,0.32564572255510155,0.3517516693717132,0.3751106133939871,0.39634281330098026,0.41874960680267576,0.4426420781858836,0.46963753053731344,0.5037099961853406,0.5576457225551016,1.019410514816327,0.9831284916201117,0.41647490276860766,0.0,0.9880886426592798,50,1146,7813,772023,no_split,narrow,individual,1,0.4760570526123047
0,0.0,0.4031414192574487,0.3248977918707097,0.3456207211464829,0.36193606063440914,0.37826437149296877,0.39360624869458294,0.4101236969059853,0.42921025582299177,0.45406991399512786,0.4913543981133132,0.8947643288276047,0.9979787234042553,0.4296332467274297,0.0,0.9967326732673267,50,1146,7828,772023,no_split,narrow,individual,1,0.46813464164733887
1,1.0,0.45269094841426505,0.33633283866246266,0.36694673581591525,0.39509166859727934,0.4206182959591272,0.4448769297181157,0.4699355054049047,0.4973258977274112,0.53089087240934,0.5778706928783119,0.9122861214480245,0.9956481481481482,0.4296332467274297,0.0,0.9967326732673267,50,1146,7828,772023,no_split,narrow,individual,1,0.46813464164733887
0,0.0,0.5414887465003776,0.3907537866429716,0.4206925287185946,0.448406075637022,0.4768114102327293,0.5051398770753013,0.5378965847267857,0.5795761954801633,0.6408459073540979,0.742788183254666,1.4153227419898708,0.9888888888888889,0.5660765107430257,0.0,0.9794315245478036,50,1146,7840,772023,no_split,narrow,individual,1,0.46810412406921387
1,1.0,0.5895466493382804,0.40428215295686104,0.4513623243465408,0.4923501593316851,0.53009729093546,0.5670178673845623,0.6062316477308325,0.6518805070859296,0.7068920872726242,0.7967937906993144,1.4479384080194022,0.9704040404040404,0.5660765107430257,0.0,0.9794315245478036,50,1146,7840,772023,no_split,narrow,individual,1,0.46810412406921387
0,0.0,0.47669757586737593,0.38847033876475495,0.40847259504507305,0.4271462060789005,0.44478626589532366,0.4627501143176264,0.4812700492752838,0.5051462060789006,0.5353077155446836,0.58254734768099,0.9823057271266454,0.9987777777777778,0.49755356253404265,0.0,0.9954666666666667,50,1146,7924,772023,no_split,narrow,individual,1,0.46326422691345215
1,1.0,0.5168052425340426,0.41404038014555006,0.4436435959912824,0.46743362162475627,0.48777917982531727,0.5077236021747956,0.5292454554590106,0.5541032206651977,0.584158735031238,0.6293784994883279,0.9729273066867247,0.9924102564102564,0.49755356253404265,0.0,0.9954666666666667,50,1146,7924,772023,no_split,narrow,individual,1,0.46326422691345215
0,0.0,0.45932736248656886,0.3525031869309465,0.3787835901940372,0.40160811845007277,0.42264066871676437,0.4438562335965892,0.4676530670220461,0.49560568542974903,0.5317219421964955,0.584909319131248,1.05373105988125,0.9973684210526316,0.4728908961308061,0.0,0.9958481012658228,50,1146,7939,772023,no_split,narrow,individual,1,0.46213674545288086
1,1.0,0.4854619760937576,0.36306922982820455,0.39377784475171124,0.42125779085425624,0.44656718190295075,0.4722224979597207,0.49963642287039517,0.529831529588606,0.5667792811122927,0.6217825831573957,1.1572510773854316,0.9944390243902439,0.4728908961308061,0.0,0.9958481012658228,50,1146,7939,772023,no_split,narrow,individual,1,0.46213674545288086
0,0.0,0.44217600451813527,0.32695245024840025,0.355467184067604,0.37946003949251833,0.401661753888222,0.42398445576951915,0.4483149915185985,0.4776966900992332,0.5162772378665333,0.5764067792530841,1.4058247940477528,0.9958787878787879,0.46211298140565454,0.0,0.9925423728813559,50,1146,8026,772023,no_split,narrow,individual,1,0.4656987190246582
1,1.0,0.4795182786884095,0.33082415631701356,0.3660131841691934,0.3972468202629886,0.42730680020568174,0.4609137355420485,0.4951746960315896,0.5354268977994733,0.5831635141969048,0.6520269968855806,1.2603773960217182,0.9896296296296296,0.46211298140565454,0.0,0.9925423728813559,50,1146,8026,772023,no_split,narrow,individual,1,0.4656987190246582
0,0.0,0.45990539743506453,0.32978949442560196,0.35459680756042056,0.3778283716410397,0.40250976408584227,0.4269736960553645,0.4561609969523932,0.4909191210511141,0.5409362005735355,0.6319586044110689,1.4596976028697093,0.9506951871657754,0.4744030371684175,0.0,0.9378082191780822,50,1146,8311,772023,no_split,narrow,individual,1,0.46317625045776367
1,1.0,0.4896337036298612,0.33181605007597825,0.36013919241446696,0.38810975538804804,0.4181540998357227,0.4535135686643036,0.491178246405192,0.5386559528537642,0.6006979951207788,0.6965149119982454,1.4775968337291165,0.9242696629213483,0.4744030371684175,0.0,0.9378082191780822,50,1146,8311,772023,no_split,narrow,individual,1,0.46317625045776367
0,0.0,0.3809358466016089,0.303780182284156,0.3226590217705171,0.33804233506935505,0.3523868432356178,0.36663583187022203,0.3817931894728685,0.4010091571806485,0.42651297399890137,0.46989917165440953,1.1378961675736867,0.9935751295336788,0.41351624145115323,0.0,0.9848238482384823,50,1146,8446,772023,no_split,narrow,individual,1,0.4544799327850342
1,1.0,0.4492436062577559,0.3122700692676432,0.34491007711043237,0.3770346206812828,0.409727949531705,0.4399476221654656,0.47068267616207,0.5034803405752096,0.54177983590578,0.5970783207168258,0.9783327783068739,0.9752272727272727,0.41351624145115323,0.0,0.9848238482384823,50,1146,8446,772023,no_split,narrow,individual,1,0.4544799327850342
0,0.0,0.48703265168961785,0.3898341993286373,0.41210583631766046,0.43111415180530155,0.4493813393520236,0.46948139448625587,0.49016162251967044,0.5156968844963857,0.5480584160904282,0.6052133876290856,1.2684854299408892,0.9895477386934673,0.5008301926411288,0.0,0.9870649350649351,50,1146,8521,772023,no_split,narrow,individual,1,0.45400047302246094
1,1.0,0.5155920778526913,0.39599714537525815,0.4236398350776925,0.44899931373681484,0.47305553884158474,0.49848139448625584,0.5257048443843978,0.5577603344181732,0.5969864656245986,0.6549504809122635,1.084444208454621,0.9844086021505376,0.5008301926411288,0.0,0.9870649350649351,50,1146,8521,772023,no_split,narrow,individual,1,0.45400047302246094
0,0.0,0.5470970884268511,0.4102777111560012,0.4436353869028197,0.47378491908613146,0.5004873693206313,0.5262652250780888,0.5535069670041257,0.5893691426443796,0.6344819838935785,0.7085114918479348,1.4773530642142645,0.9936612021857923,0.5592441004988132,0.0,0.9926074498567335,50,1146,8704,772023,no_split,narrow,individual,1,0.4552726745605469
1,1.0,0.5726350836865786,0.4114460890227317,0.45122784599331356,0.4852657924365357,0.5167952285931243,0.5502942111853084,0.5874271180806934,0.626344360025905,0.6811040525212693,0.7596511468810231,1.38348448881179,0.9914457831325301,0.5592441004988132,0.0,0.9926074498567335,50,1146,8704,772023,no_split,narrow,individual,1,0.4552726745605469
0,0.0,0.4297300933547965,0.3240249422033669,0.35215799623963406,0.3757208886158752,0.3952847284524202,0.41537079884172745,0.438035009158649,0.4620315813741281,0.49835594722692267,0.5512889683601789,1.0781551121194195,0.9981642512077294,0.4543169863773574,0.0,0.9975773195876289,50,1146,8755,772023,no_split,narrow,individual,1,0.4549689292907715
1,1.0,0.482435698287137,0.3343399143805895,0.37613975424428436,0.4115676594589661,0.44335190504823635,0.4741391475534097,0.5062699156866157,0.5400849217811143,0.5778219347494221,0.6330381868690726,1.104547090411033,0.9969060773480662,0.4543169863773574,0.0,0.9975773195876289,50,1146,8755,772023,no_split,narrow,individual,1,0.4549689292907715
0,0.0,0.4512306158420798,0.3377711386550719,0.35978473154677987,0.37955313391001355,0.3980717368042909,0.4197853363621254,0.445675280370386,0.48026873225014843,0.5308088187401522,0.6078070428170146,1.2027105077626103,0.99625,0.4746746504574645,0.0,0.9892,50,1146,8785,772023,no_split,narrow,individual,1,0.4548814296722412
1,1.0,0.5000723546241311,0.3633979248593353,0.40658424005109,0.43807173680429096,0.4647064728996244,0.4904400004481621,0.5152737303855048,0.5425838849825529,0.58172941675888,0.6458157099143959,1.474294519711521,0.9815625,0.4746746504574645,0.0,0.9892,50,1146,8785,772023,no_split,narrow,individual,1,0.4548814296722412
0,0.0,0.4075648308580198,0.3070765227324295,0.3274111794482825,0.34372916545356913,0.360370038290709,0.37788906436507136,0.3970423544989862,0.42354677512807315,0.4653822527605412,0.5459769893080239,1.1842496054808833,0.9814893617021276,0.4403105599506196,0.0,0.9558354755784062,50,1146,8788,772023,no_split,narrow,individual,1,0.45434141159057617
1,1.0,0.47093840606708093,0.31624527918496265,0.3532997188130488,0.3909565670412435,0.42155265777035744,0.4571879459284055,0.49085320286467626,0.5256897318015,0.5689213188399234,0.6358696744061498,1.3142496054808832,0.9318407960199006,0.4403105599506196,0.0,0.9558354755784062,50,1146,8788,772023,no_split,narrow,individual,1,0.45434141159057617
0,0.0,0.43237557172099306,0.37002651387463614,0.38298995207771613,0.3946251299320178,0.40620412606179285,0.41794075326781593,0.431724012232876,0.4484314387602885,0.4733502810974134,0.5138170191895093,0.8479594021894838,0.9955555555555555,0.4526920362018674,0.0,0.9852459016393442,50,1146,161753,772023,no_split,narrow,individual,1,0.4504580497741699
1,1.0,0.472353130860778,0.3860228576949441,0.40906406790183,0.42901684620675345,0.4469249640282526,0.46462167225301637,0.48240154016794196,0.5028112640897006,0.5280748008735362,0.5672625870878388,0.9297557960211339,0.975268817204301,0.4526920362018674,0.0,0.9852459016393442,50,1146,161753,772023,no_split,narrow,individual,1,0.4504580497741699
0,0.0,0.44441212682912684,0.36464872097781326,0.38442198540037165,0.40000909181777744,0.4152280417028146,0.43067419570091053,0.44781321264450547,0.4680024965717829,0.4942047603185756,0.5399119484144905,0.8878668256763601,0.9965979381443298,0.4648583398144306,0.0,0.9937765957446808,50,1146,337788,772023,no_split,narrow,individual,1,0.45227885246276855
1,1.0,0.48665265475480934,0.3768901197785318,0.40681516765771103,0.4320229735924279,0.45496166340919136,0.47926900882228657,0.5018847871466173,0.5278887466841353,0.5584652270048449,0.6048813349439016,0.9135186876562472,0.9907692307692307,0.4648583398144306,0.0,0.9937765957446808,50,1146,337788,772023,no_split,narrow,individual,1,0.45227885246276855
