,congruency,mean_rt,qu10_rt,qu20_rt,qu30_rt,qu40_rt,qu50_rt,qu60_rt,qu70_rt,qu80_rt,qu90_rt,qu100_rt,mean_acc,mean_rt_overall,nonconvergent_trials,accuracy_overall,n_posterior_draws,condition,id,slurm_id,split,spacing,estimation_level,number_parts,time_post_sampling_sec
0,0.0,0.4141828771127115,0.33933594303843667,0.3554850208662143,0.36979679511416463,0.38262206275411614,0.39600175226059975,0.41210843094643057,0.432151390454472,0.45993518633633074,0.5117281834084013,1.0575369059756963,0.9706315789473684,0.42041064331274897,0.0,0.9612698412698413,50,1167,1108,772033,no_split,wide,individual,1,0.4930124282836914
1,1.0,0.4267046623447016,0.34886578036583216,0.36690484633151466,0.3815253532623032,0.3953460533924133,0.41026163958082956,0.428124626542847,0.4491249723506692,0.47706079014370106,0.5255924009943274,0.9919972756138409,0.9518085106382979,0.42041064331274897,0.0,0.9612698412698413,50,1167,1108,772033,no_split,wide,individual,1,0.4930124282836914
0,0.0,0.4429516877748611,0.3546938891728017,0.3763182586582736,0.393105580985855,0.4089575455632378,0.425322176654342,0.4442580085071235,0.46665498346988443,0.4981120150309221,0.5513792614515938,1.1570224214843372,0.9646560846560847,0.44671783705798007,0.0,0.9561578947368421,50,1167,1507,772033,no_split,wide,individual,1,0.45371103286743164
1,1.0,0.45044455022295116,0.35996058417619775,0.3815942571935556,0.39935886784040403,0.416766587831791,0.4338569911739695,0.45310185407475956,0.4786240411793124,0.5099355407253596,0.5615972589906616,1.044882444048217,0.9477486910994765,0.44671783705798007,0.0,0.9561578947368421,50,1167,1507,772033,no_split,wide,individual,1,0.45371103286743164
0,0.0,0.45084233308545674,0.3518365130995896,0.37734249161871125,0.3974327133265621,0.4145465863888623,0.43344531638944295,0.4532534863565527,0.47880410370092974,0.5141864547476899,0.5704234636821227,1.1386021094638503,0.9893684210526316,0.45933765211617167,0.0,0.9850918635170604,50,1167,1538,772033,no_split,wide,individual,1,0.4518308639526367
1,1.0,0.4677884930367781,0.3648833224815592,0.3913832580284307,0.411436469162292,0.4306110683836709,0.451675864622765,0.47529660027325027,0.5016412257557719,0.5348880849175637,0.5901282232728993,1.1216591320754445,0.9808376963350786,0.45933765211617167,0.0,0.9850918635170604,50,1167,1538,772033,no_split,wide,individual,1,0.4518308639526367
0,0.0,0.46249097521722193,0.3753404302272832,0.3956824231821136,0.41257458947850784,0.4290051601812063,0.4460362795835779,0.46526342857636815,0.4875476366978054,0.5188591983674261,0.5729662532268285,1.2206922118319248,0.9866304347826087,0.46721691194495796,0.0,0.9848648648648649,50,1167,1582,772033,no_split,wide,individual,1,0.4539928436279297
1,1.0,0.47189203214873965,0.38259544965370323,0.40426180342437534,0.42271202433551575,0.4387749383176227,0.4568727415698883,0.47483565995577576,0.49755903958327147,0.5299347843247744,0.5795127660612767,1.184160802169559,0.9831182795698925,0.46721691194495796,0.0,0.9848648648648649,50,1167,1582,772033,no_split,wide,individual,1,0.4539928436279297
0,0.0,0.4328787947535991,0.35731024891605023,0.3758789521822209,0.3900041591544945,0.40288344208847005,0.4169856859539222,0.4323235563166336,0.45269364695115166,0.4797167695992982,0.5259022299479374,1.1608624642013123,0.9721465968586387,0.444889661479066,0.0,0.9473629242819843,50,1167,1583,772033,no_split,wide,individual,1,0.45711755752563477
1,1.0,0.45683797160700435,0.3698800422052415,0.39087243038335173,0.40825079576288076,0.4250468252110028,0.4420947679089606,0.46065268504790713,0.4833814420850692,0.512737841156894,0.5615283662482504,1.0672013833538705,0.9227083333333334,0.444889661479066,0.0,0.9473629242819843,50,1167,1583,772033,no_split,wide,individual,1,0.45711755752563477
0,0.0,0.569070651438325,0.4061720574196465,0.4405656452018548,0.46980155774571675,0.4985543496600609,0.5303524701191151,0.5660906735658249,0.6113479286443306,0.6745432373341242,0.785707539811166,1.5679180906390675,0.9666666666666667,0.5706824945295114,0.0,0.9658791208791209,50,1167,1597,772033,no_split,wide,individual,1,0.46146297454833984
1,1.0,0.5722081428029872,0.4118275089956582,0.44529058410031236,0.47372290089628555,0.5027682941665432,0.5348062747539863,0.570704769256693,0.6162861107094604,0.6774468155987685,0.7851045616609854,1.5864899428863728,0.9651336898395722,0.5706824945295114,0.0,0.9658791208791209,50,1167,1597,772033,no_split,wide,individual,1,0.46146297454833984
0,0.0,0.4044228155086838,0.331605516923209,0.3518367840478753,0.3675750616105053,0.38226247248109,0.3953790742835361,0.40998912533584797,0.4267202551971688,0.44966170255857535,0.48618327034244124,0.8579401095506077,0.9946315789473684,0.41288447882922064,0.0,0.988707124010554,50,1167,1601,772033,no_split,wide,individual,1,0.46563243865966797
1,1.0,0.4213909128551571,0.3431905380599651,0.3640570573186344,0.3810829345352364,0.39698780800519096,0.41227868432319903,0.4280956218542908,0.4464154359286606,0.4712454808625056,0.5112456272631096,0.9060998521841995,0.9827513227513227,0.41288447882922064,0.0,0.988707124010554,50,1167,1601,772033,no_split,wide,individual,1,0.46563243865966797
0,0.0,0.4810929191133491,0.34762933073352353,0.377932021336019,0.4027000750291457,0.4262604022509281,0.45144177631201843,0.47850695166150586,0.5163942720140189,0.5685768783522709,0.654198463985143,1.436912059174887,0.9698947368421053,0.48711488137807024,0.0,0.9661052631578947,50,1167,1614,772033,no_split,wide,individual,1,0.46758055686950684
1,1.0,0.4931368436427914,0.35696848072148574,0.3880622811091645,0.4144742096184973,0.4388549430388929,0.46441588458990696,0.49534666247544645,0.5299607134038979,0.5812010943831779,0.6672835290801318,1.4291945191331457,0.9623157894736842,0.48711488137807024,0.0,0.9661052631578947,50,1167,1614,772033,no_split,wide,individual,1,0.46758055686950684
0,0.0,0.4279802967000151,0.3733679282513893,0.3885738714451497,0.40042922940544384,0.4110084344356013,0.4217219339848819,0.43268178014809155,0.4456320047301293,0.462609224944836,0.48992193436735704,0.782834733172255,0.9952631578947368,0.4326929725983677,0.0,0.9933858267716535,50,1167,161753,772033,no_split,wide,individual,1,0.4750633239746094
1,1.0,0.43738097480091737,0.37917431275886004,0.3949718263970486,0.40741667127187786,0.4186357759050038,0.43047530717859717,0.44247730589967393,0.456807612091611,0.4745442712090551,0.5045513175712157,0.7699156416239608,0.9915183246073298,0.4326929725983677,0.0,0.9933858267716535,50,1167,161753,772033,no_split,wide,individual,1,0.4750633239746094
0,0.0,0.46597014805394027,0.3702434834557141,0.3926833749164954,0.4109237906587764,0.4274085025741393,0.4457822144374354,0.4659496380273212,0.4904283662720066,0.527611790116147,0.5841834681873933,1.2192411817978086,0.9815957446808511,0.4724115924109727,0.0,0.9762005277044855,50,1167,1638,772033,no_split,wide,individual,1,0.47766661643981934
1,1.0,0.4787518622493085,0.38143742691887783,0.4038887257246604,0.42209467508978304,0.4393071595211218,0.45818764836733883,0.47906687123372454,0.504966676553758,0.5411396004593457,0.6021645370281833,1.1923554664347182,0.970890052356021,0.4724115924109727,0.0,0.9762005277044855,50,1167,1638,772033,no_split,wide,individual,1,0.47766661643981934
0,0.0,0.38961704739124725,0.3237186963243702,0.34156380420640203,0.35530617968723455,0.36721793381187573,0.3798713943794769,0.3933417614366747,0.4087121832687633,0.4305318207377744,0.4676366875600124,0.9266365116522736,0.9793684210526316,0.39664296497931684,0.0,0.9677572559366755,50,1167,1657,772033,no_split,wide,individual,1,0.48128533363342285
1,1.0,0.40370605673451904,0.33064232155397066,0.3504078600846282,0.36494804098108646,0.3784737197555432,0.3926049973271698,0.40838131919459675,0.4263086025445844,0.4506215291397824,0.48810541253426387,0.8591657859720222,0.9560846560846561,0.39664296497931684,0.0,0.9677572559366755,50,1167,1657,772033,no_split,wide,individual,1,0.48128533363342285
0,0.0,0.4626471017632953,0.373212117919482,0.3931478707485218,0.4095455206676509,0.42529675337513145,0.4424079478497347,0.46056108367644816,0.4855927746317508,0.5194868221762067,0.5783401951252026,1.148576516608102,0.9903191489361702,0.4707634161749793,0.0,0.9860846560846561,50,1167,1663,772033,no_split,wide,individual,1,0.4812164306640625
1,1.0,0.4787942956981192,0.3842412541823367,0.40567213434360516,0.4241457502344837,0.44162386316603613,0.46104187304738614,0.481960689468686,0.506104971635921,0.5409424411642753,0.5957718549536207,1.1403288445821358,0.9818947368421053,0.4707634161749793,0.0,0.9860846560846561,50,1167,1663,772033,no_split,wide,individual,1,0.4812164306640625
0,0.0,0.5128089662725799,0.3985208764302219,0.42757041997674167,0.44885612491401156,0.4702020021645224,0.491560999873744,0.5148819837633566,0.5433596980957541,0.5835719762353846,0.6536157811684816,1.4088373007475348,0.9763440860215054,0.5210280466757758,0.0,0.9679356568364611,50,1167,1761,772033,no_split,wide,individual,1,0.48650407791137695
1,1.0,0.5292031747773506,0.41070485377488053,0.44044905375179705,0.46349685628783743,0.4864775023318884,0.5093718984929765,0.5344914311354008,0.5636383217707183,0.6051331125897198,0.6760419808646302,1.4355263123200617,0.959572192513369,0.5210280466757758,0.0,0.9679356568364611,50,1167,1761,772033,no_split,wide,individual,1,0.48650407791137695
0,0.0,0.44233063037730963,0.34037988834746474,0.3660390278996824,0.3874261573540057,0.40673760582081525,0.4259025134589952,0.44751533556141465,0.47282058022826207,0.5061641901153123,0.5668490696380019,1.158738678705924,0.9347643979057592,0.4457335334025371,0.0,0.9284816753926701,50,1167,1768,772033,no_split,wide,individual,1,0.48680543899536133
1,1.0,0.4491364364277646,0.347824807955372,0.37368308727845617,0.3945721394139609,0.413807678583185,0.4336388391230675,0.4551658415959238,0.4798590800883842,0.5145035320475628,0.569671124716892,1.0601800744310492,0.9221989528795812,0.4457335334025371,0.0,0.9284816753926701,50,1167,1768,772033,no_split,wide,individual,1,0.48680543899536133
0,0.0,0.36662521234051143,0.29771052216149224,0.31746625949067325,0.3316096819216605,0.3443791002388285,0.3575277983634627,0.37222034883117744,0.38900265643389126,0.40990526230960667,0.4452734077281994,0.8287826886007886,0.9519148936170213,0.37028083569995435,0.0,0.9402127659574468,50,1167,1813,772033,no_split,wide,individual,1,0.4999966621398926
1,1.0,0.3739364590593973,0.30043312916646553,0.32100358226873527,0.3364914550895879,0.35023943279088127,0.36504349826114296,0.38026392636293355,0.39788585609620314,0.42103916772813954,0.45758802315304564,0.7741473869724058,0.9285106382978724,0.37028083569995435,0.0,0.9402127659574468,50,1167,1813,772033,no_split,wide,individual,1,0.4999966621398926
0,0.0,0.3870111393614803,0.31352228269955956,0.33142705774725334,0.3457417035550024,0.35917701225673193,0.37255428045851446,0.38740265606958546,0.40558917791127064,0.43342762345621333,0.4797354826895957,0.9821645952954968,0.9843157894736843,0.39003463238103425,0.0,0.9815748031496063,50,1167,1821,772033,no_split,wide,individual,1,0.4944157600402832
1,1.0,0.39304229559420323,0.31633091878374514,0.3347246911355454,0.34950990118110653,0.3641355320661076,0.37890117101849063,0.3951771216656079,0.4152048634059846,0.44190691389244213,0.4875204942571761,0.9496444850542063,0.9788481675392671,0.39003463238103425,0.0,0.9815748031496063,50,1167,1821,772033,no_split,wide,individual,1,0.4944157600402832
0,0.0,0.44166210098342756,0.3508261233769083,0.3717992714579306,0.38954200511510084,0.4056368064298044,0.42185390649422033,0.4414169280764065,0.46609192728741344,0.49901047654886366,0.5587089132476727,1.231334277014131,0.9904712041884817,0.44334347922463,0.0,0.9894148936170213,50,1167,275,772033,no_split,wide,individual,1,0.4933433532714844
1,1.0,0.4450793886520335,0.3529530445421326,0.3745283984050629,0.3920224651089489,0.4088696290159581,0.42628721339684594,0.4459699091648908,0.47062411867233256,0.5038228358172138,0.5595921937597789,1.2185170308187694,0.9883243243243244,0.44334347922463,0.0,0.9894148936170213,50,1167,275,772033,no_split,wide,individual,1,0.4933433532714844
0,0.0,0.374117873736639,0.30669744443731084,0.321706890606316,0.3338892835147219,0.34616080972422686,0.35929109063874065,0.3743343195246896,0.3923763022253905,0.41717382591689606,0.46086019766345476,0.9711773553491622,0.9774468085106383,0.3782919671643332,0.0,0.9756498673740053,50,1167,3286,772033,no_split,wide,individual,1,0.5035583972930908
1,1.0,0.3824439754416164,0.3104125425404806,0.3263026614158961,0.3393578746775412,0.3526516985669967,0.36585364588296426,0.3822030640812907,0.4010127512587939,0.4282406293861155,0.4756400264709531,0.9775514411504791,0.9738624338624339,0.3782919671643332,0.0,0.9756498673740053,50,1167,3286,772033,no_split,wide,individual,1,0.5035583972930908
0,0.0,0.4540420910539131,0.3593871528139288,0.3824780856337396,0.40104453278803465,0.41857249251361084,0.43726440673931827,0.4568641723695213,0.4794823214543967,0.5125358020696281,0.5697236039971914,1.2036443038195426,0.9845502645502645,0.459278965015847,0.0,0.9811609498680739,50,1167,3292,772033,no_split,wide,individual,1,0.5044529438018799
1,1.0,0.4644882764832444,0.36623165030009297,0.39164616548171116,0.4110550236144298,0.4285290878144632,0.44785013699664517,0.4689508659000386,0.4945422710861095,0.526739235544626,0.5827092508729047,1.0741192976992038,0.9777894736842105,0.459278965015847,0.0,0.9811609498680739,50,1167,3292,772033,no_split,wide,individual,1,0.5044529438018799
0,0.0,0.4487247329938897,0.36808524188785624,0.3904815853804267,0.40666090172898184,0.42087695666221503,0.43652628794832526,0.45339802621023584,0.47419788483628567,0.501117225713648,0.5426176491010976,1.1044601357177517,0.9931578947368421,0.4522421198553352,0.0,0.9908661417322835,50,1167,337788,772033,no_split,wide,individual,1,0.5079457759857178
1,1.0,0.45574109107876276,0.37297222318820805,0.39625743453301104,0.4138073862323557,0.4293270400625779,0.44563512569152935,0.4629235047045665,0.4827438599280543,0.5087417525699903,0.5512769289781851,1.042815429718767,0.988586387434555,0.4522421198553352,0.0,0.9908661417322835,50,1167,337788,772033,no_split,wide,individual,1,0.5079457759857178
0,0.0,0.4017840023968105,0.32489988378463164,0.3426749668251085,0.35718691527953733,0.3707022577293672,0.38432745013417924,0.40077329691535035,0.4201775327636884,0.4480724655883643,0.4986218533996266,1.0300485026429924,0.9796791443850268,0.41143478364217756,0.0,0.9669354838709677,50,1167,3487,772033,no_split,wide,individual,1,0.5027601718902588
1,1.0,0.4211898976577649,0.33484773906877485,0.355037487413979,0.3714026749914778,0.3869107694676745,0.4041792160981596,0.42364077777168796,0.446716508957766,0.47863926602298534,0.5298527476124217,1.0333088937710744,0.9540540540540541,0.41143478364217756,0.0,0.9669354838709677,50,1167,3487,772033,no_split,wide,individual,1,0.5027601718902588
0,0.0,0.4046204134417976,0.3434988091200746,0.3611876759176577,0.3742660002774285,0.3860662204257444,0.3985378714769696,0.410188485355271,0.4241017579282965,0.44258256411300584,0.4718489565725303,1.0005363568494587,0.9855497382198953,0.4102331928704784,0.0,0.9756084656084656,50,1167,3580,772033,no_split,wide,individual,1,0.5083041191101074
1,1.0,0.41596603175217906,0.3505074414088261,0.3682553128532107,0.3824090957578854,0.3947925516499592,0.4077851123970877,0.42155789011448325,0.4368609003761087,0.4585110381739824,0.49152981104525056,0.7573083265595005,0.9654545454545455,0.4102331928704784,0.0,0.9756084656084656,50,1167,3580,772033,no_split,wide,individual,1,0.5083041191101074
0,0.0,0.4678330488566403,0.3688997608254256,0.39467974114762,0.41443141278220136,0.4321340746790727,0.44985630594615855,0.4700270661794864,0.49347023803181145,0.5287259793570326,0.5905952984099598,1.3898117696487156,0.9596703296703297,0.47852595048617,0.0,0.9385082872928177,50,1167,3625,772033,no_split,wide,individual,1,0.5070695877075195
1,1.0,0.4893376621338056,0.3838697665254011,0.4104108005059744,0.43305901939663155,0.45354832145876345,0.47270474642808324,0.49446154343795823,0.5206401275972856,0.5553181790030874,0.6154273486963684,1.1117617052805495,0.9171111111111111,0.47852595048617,0.0,0.9385082872928177,50,1167,3625,772033,no_split,wide,individual,1,0.5070695877075195
0,0.0,0.5489334834626751,0.4360718857377201,0.4659744342373654,0.490511573024392,0.5114549698560666,0.5326047273822083,0.5548571729921067,0.5834497466008095,0.6210083520694304,0.6813849268436181,1.3381249667726012,0.9936125654450262,0.556577754442201,0.0,0.9924409448818897,50,1167,3754,772033,no_split,wide,individual,1,0.4983246326446533
1,1.0,0.564262258426882,0.4474487616671312,0.4792624870259657,0.5039433119515747,0.5266446157309674,0.5499891452989021,0.5736142887820519,0.6006396451546748,0.6388600618440914,0.7002420018820483,1.2520767683074334,0.9912631578947368,0.556577754442201,0.0,0.9924409448818897,50,1167,3754,772033,no_split,wide,individual,1,0.4983246326446533
0,0.0,0.41068698383922975,0.33775511196511965,0.35584018164625136,0.3707500533415375,0.383676009711685,0.39755312167624557,0.4131745259193019,0.43197322054297416,0.45653935322346706,0.49911960671227484,1.0216683465003076,0.96994708994709,0.41468354647435307,0.0,0.9642744063324539,50,1167,3910,772033,no_split,wide,individual,1,0.512354850769043
1,1.0,0.4186590745692915,0.34226765771672646,0.3617848996289811,0.3772404224179503,0.39158702274218193,0.40555001502070276,0.42094509775009226,0.44023444840890724,0.46776153073198556,0.5103048912309193,0.9492329075792632,0.9586315789473684,0.41468354647435307,0.0,0.9642744063324539,50,1167,3910,772033,no_split,wide,individual,1,0.512354850769043
0,0.0,0.40143873600823216,0.33702623778016255,0.3529049959005567,0.3654151006187529,0.3770201651617431,0.38840553001693756,0.40166694449757945,0.4190078921416439,0.4414490221564846,0.48219757713250594,0.9173661994135869,0.9778947368421053,0.40477908149961983,0.0,0.9738786279683377,50,1167,4222,772033,no_split,wide,individual,1,0.5104782581329346
1,1.0,0.4081371007766762,0.3426252056986624,0.3582043695171239,0.3706765724464757,0.3828142221885499,0.39494990063813495,0.40952998646176986,0.4274433537621075,0.45109058090312354,0.48909210156037347,0.8474427636700566,0.9698412698412698,0.40477908149961983,0.0,0.9738786279683377,50,1167,4222,772033,no_split,wide,individual,1,0.5104782581329346
0,0.0,0.44713357116945296,0.3420723217055542,0.36780830260764696,0.38751399747202,0.4052962509179065,0.4248705431597122,0.44652770140089376,0.47323844867422243,0.5148441891987844,0.5810152826478189,1.256817598524328,0.9481481481481482,0.45729747069978305,0.0,0.9242857142857143,50,1167,4264,772033,no_split,wide,individual,1,0.5029561519622803
1,1.0,0.4674613702301131,0.3571896992566793,0.3831866700025118,0.4051696400021223,0.42637683959685224,0.4477595900310962,0.47213695198190775,0.49892008360299506,0.5385996053631606,0.6041298691371173,1.115533649685632,0.9004232804232805,0.45729747069978305,0.0,0.9242857142857143,50,1167,4264,772033,no_split,wide,individual,1,0.5029561519622803
0,0.0,0.43068118668224975,0.3706122864348837,0.3854318336169658,0.39663887801339964,0.40818199684194095,0.41945979287776425,0.4319746348630035,0.4471075029335752,0.4693602011223395,0.5037009320557355,0.9370125594847584,0.9889361702127659,0.4337458232137575,0.0,0.9857066666666666,50,1167,5281,772033,no_split,wide,individual,1,0.509580135345459
1,1.0,0.43682684817591505,0.3725298264797765,0.38837649316776285,0.40051365439393055,0.4126920552357913,0.4244213871490051,0.4390496154528856,0.4561194488732156,0.47816675491689,0.5163066602810894,0.9643594362870376,0.9824598930481283,0.4337458232137575,0.0,0.9857066666666666,50,1167,5281,772033,no_split,wide,individual,1,0.509580135345459
0,0.0,0.4609019461950957,0.3742430842105162,0.39292660453259903,0.4095920543937904,0.42519016155669404,0.4416194579560728,0.46095063048370877,0.4843408702483843,0.519252326789755,0.5735008553164728,1.3901972697030192,0.9957671957671957,0.4662130591783998,0.0,0.99552,50,1167,5332,772033,no_split,wide,individual,1,0.5112738609313965
1,1.0,0.4716098352743377,0.381408928444908,0.40143984757963974,0.41920498766665676,0.4364853706776075,0.4546360816261217,0.4742832201845052,0.49741495937684177,0.5291807439955283,0.5879909933974826,1.0802611603682428,0.995268817204301,0.4662130591783998,0.0,0.99552,50,1167,5332,772033,no_split,wide,individual,1,0.5112738609313965
0,0.0,0.44174255350455144,0.36035131774779583,0.37988936989216565,0.396193635008667,0.4109599732145095,0.4259367830309001,0.442267721839987,0.4634098871089518,0.4933256121844293,0.5418195443646738,1.123805236856002,0.9745263157894737,0.45150510624935364,0.0,0.9570448548812664,50,1167,5575,772033,no_split,wide,individual,1,0.4962930679321289
1,1.0,0.4613193127123824,0.3712021937408687,0.39435005294404374,0.41235974900928524,0.42917843754382623,0.4466330257767809,0.4645831032752441,0.48782699884297864,0.5191887396596323,0.5718025304398381,1.1627198026917926,0.9394708994708995,0.45150510624935364,0.0,0.9570448548812664,50,1167,5575,772033,no_split,wide,individual,1,0.4962930679321289
0,0.0,0.4409279261461703,0.3588514375380351,0.3778099699418687,0.39275755868334633,0.40692981595844335,0.42189474687823697,0.4393925271416422,0.4609471943788886,0.49194854754693035,0.547877883179025,1.2274152346859024,0.9625136612021858,0.4441814726155444,0.0,0.9538544474393531,50,1167,5731,772033,no_split,wide,individual,1,0.5086815357208252
1,1.0,0.4473484885937118,0.36335437092709094,0.38304469801532476,0.39919849323533774,0.4146037213981388,0.4303180738416423,0.4490790462381844,0.47159893716220785,0.501999606947224,0.5516532084295828,1.1263774549444454,0.9454255319148936,0.4441814726155444,0.0,0.9538544474393531,50,1167,5731,772033,no_split,wide,individual,1,0.5086815357208252
0,0.0,0.42272167550917783,0.347356602871024,0.36890479664767306,0.3857327006533448,0.40058804790357777,0.4145799966490566,0.43006332287827737,0.44844717253590255,0.4703105884353005,0.5068363916713958,0.9555804147587597,0.9893617021276596,0.43514437893298336,0.0,0.9783554376657825,50,1167,5761,772033,no_split,wide,individual,1,0.5035851001739502
1,1.0,0.4475013537672449,0.3625343923731569,0.3883352661230301,0.4059481365568823,0.4229199830303844,0.43967959100175535,0.45702023051099744,0.4768501046443692,0.5019455910328258,0.5420098207861015,0.8788623010394195,0.9674074074074074,0.43514437893298336,0.0,0.9783554376657825,50,1167,5761,772033,no_split,wide,individual,1,0.5035851001739502
0,0.0,0.41916796521511895,0.32506279881321865,0.34903906892882663,0.36627362018923276,0.3828511423277823,0.40000508061494716,0.42017419740633133,0.4458681541602665,0.47832796594424487,0.5367409875170766,1.1309646407517775,0.9138541666666666,0.42054325164207446,0.0,0.9102604166666667,50,1167,5803,772033,no_split,wide,individual,1,0.4995296001434326
1,1.0,0.42191853806902996,0.3279903796182463,0.35093096427441406,0.36879676344440265,0.3852363538517412,0.40278598714309616,0.42299457237854016,0.44770235777857936,0.4817713132085098,0.5384258464728688,1.1747948340056855,0.9066666666666666,0.42054325164207446,0.0,0.9102604166666667,50,1167,5803,772033,no_split,wide,individual,1,0.4995296001434326
0,0.0,0.4949759649459085,0.3810651557621174,0.4113763441776644,0.4340239055040246,0.4556250319158526,0.47681210439741234,0.4999553148130615,0.5278207219156604,0.5639189071281844,0.6293359377116877,1.3219349267429232,0.9727083333333333,0.5064431372374673,0.0,0.9616230366492147,50,1167,5815,772033,no_split,wide,individual,1,0.49152255058288574
1,1.0,0.5180310166057793,0.39689951927222317,0.42999820452819837,0.45354157283658375,0.4764216581799256,0.501270829207512,0.5264939330987102,0.5567842707725902,0.5962904166452027,0.6620142120757349,1.3158726801070104,0.9504210526315789,0.5064431372374673,0.0,0.9616230366492147,50,1167,5815,772033,no_split,wide,individual,1,0.49152255058288574
0,0.0,0.41251273234829466,0.3490548574497336,0.36429154193230595,0.37657553237244157,0.38786590229117457,0.39942056655963265,0.4126676900811776,0.4288415618794057,0.451410769957427,0.4917747148303191,1.0797082299960743,0.9947368421052631,0.4214262571185816,0.0,0.9921693121693121,50,1167,6055,772033,no_split,wide,individual,1,0.48991894721984863
1,1.0,0.43043460662046734,0.3592318006938904,0.3768222550995386,0.3908644340257408,0.4040320473282338,0.41829796649949563,0.43477655300436835,0.4526995763076804,0.4764831771556497,0.5158089923884226,0.9308154193610859,0.9895744680851064,0.4214262571185816,0.0,0.9921693121693121,50,1167,6055,772033,no_split,wide,individual,1,0.48991894721984863
0,0.0,0.45625549789158054,0.3510058673419968,0.3764440150834503,0.3952189735395823,0.4143626289497004,0.43307764817426897,0.45568093667608056,0.4832115661737272,0.5248874122509176,0.5899323805171334,1.1415835276503958,0.9681081081081081,0.4633875332168884,0.0,0.9563538873994638,50,1167,6109,772033,no_split,wide,individual,1,0.4813563823699951
1,1.0,0.4704057594678563,0.3614916510076059,0.38822330260798216,0.4093131958609125,0.4299437736807807,0.4487915023998016,0.47141857384723346,0.5004125493435954,0.5411314769670734,0.605580116204648,1.2479560060362387,0.9447872340425532,0.4633875332168884,0.0,0.9563538873994638,50,1167,6109,772033,no_split,wide,individual,1,0.4813563823699951
0,0.0,0.38686325721991854,0.32621650607273456,0.34093060651644486,0.3526779359405307,0.36360646989223117,0.3744805375393469,0.3874339686194734,0.4037674836122542,0.42384211070576255,0.46027935188295355,0.8873061720610483,0.9894240837696335,0.39700281412664734,0.0,0.9771801566579634,50,1167,6214,772033,no_split,wide,individual,1,0.47017383575439453
1,1.0,0.40708956084115366,0.3367751999351757,0.3545428597939134,0.368176191387602,0.3812064113917104,0.39449888927362914,0.41070210185948897,0.42900452798970423,0.4531754182241397,0.49287638920371507,0.8557073756484794,0.965,0.39700281412664734,0.0,0.9771801566579634,50,1167,6214,772033,no_split,wide,individual,1,0.47017383575439453
0,0.0,0.4469391746076481,0.35345853763285917,0.3819565759507223,0.4027735289762812,0.4203507124956075,0.438575955315215,0.45717835816055274,0.47949590844384266,0.5061823823077319,0.5486212964171266,0.9792718268555096,0.9446560846560846,0.4513260770799026,0.0,0.932962962962963,50,1167,6253,772033,no_split,wide,individual,1,0.47168922424316406
1,1.0,0.45571297955215695,0.35982550644040323,0.3885733444437724,0.40958676307609937,0.42912995980526797,0.44852408640337077,0.4687156626265652,0.49060590535277576,0.5167903871550332,0.5607616727088329,0.9478440381529617,0.9212698412698412,0.4513260770799026,0.0,0.932962962962963,50,1167,6253,772033,no_split,wide,individual,1,0.47168922424316406
0,0.0,0.4523447637025345,0.3733440343677518,0.39568711561199926,0.4133910351950969,0.4282162527913253,0.44349702837137583,0.459922600061521,0.47796779795429584,0.5011885204720845,0.5430861341616817,0.9397194199490136,0.9828421052631579,0.4561405749665539,0.0,0.976482939632546,50,1167,6262,772033,no_split,wide,individual,1,0.4689970016479492
1,1.0,0.45991651287317015,0.3778408283325938,0.400747655709075,0.41873040630887687,0.4347485216197195,0.4504265978364177,0.46806947695485,0.4882523229667651,0.5130344326556809,0.5536663527487156,1.0709231744422791,0.9701570680628272,0.4561405749665539,0.0,0.976482939632546,50,1167,6262,772033,no_split,wide,individual,1,0.4689970016479492
0,0.0,0.49124205688430456,0.40031640831220866,0.42164727181584954,0.43941897681493464,0.45595832998925223,0.4729774877351158,0.4915635968697847,0.515262316323331,0.5473385638248006,0.6042463435720957,1.2635827582374446,0.9968421052631579,0.5034463805180861,0.0,0.9937894736842106,50,1167,6361,772033,no_split,wide,individual,1,0.4647390842437744
1,1.0,0.5156507041518674,0.4192339687883356,0.44323741994584176,0.4622253931334987,0.48018597073902797,0.49879172210364014,0.5190473010888561,0.5451372257154571,0.5792464816552616,0.6342775780283879,1.2712837802101202,0.9907368421052631,0.5034463805180861,0.0,0.9937894736842106,50,1167,6361,772033,no_split,wide,individual,1,0.4647390842437744
0,0.0,0.4079729448691854,0.34033464062148766,0.3593142894575383,0.37253207560605134,0.38578429196481984,0.39867612367173294,0.4125543358568066,0.4283225381366566,0.4493094123144151,0.4863961680320338,0.848472992483815,0.9886315789473684,0.4114346293028283,0.0,0.9840633245382586,50,1167,6427,772033,no_split,wide,individual,1,0.465407133102417
1,1.0,0.4149146295271255,0.3431678532934484,0.36317354707822136,0.37802591135096414,0.3920455249705833,0.40533596179647413,0.4193350847592176,0.4363630388516611,0.45993359779943443,0.49683147241017617,0.8059554673806842,0.9794708994708995,0.4114346293028283,0.0,0.9840633245382586,50,1167,6427,772033,no_split,wide,individual,1,0.465407133102417
0,0.0,0.4559897645679739,0.3792260661679843,0.39933762191674277,0.41556379064740745,0.43047587760842176,0.4445230493443475,0.46085545120042104,0.47981396548120286,0.5056563442857801,0.5461850808298812,0.976287470263326,0.9723404255319149,0.4584664646044556,0.0,0.9714133333333334,50,1167,6583,772033,no_split,wide,individual,1,0.4588813781738281
1,1.0,0.46095640902615903,0.38260054746903616,0.40311326623906474,0.41902623078072593,0.43362269817910426,0.44892551995973035,0.4658268537353885,0.4862311458995958,0.511913011768844,0.553372172485135,1.021687842583348,0.9704812834224599,0.4584664646044556,0.0,0.9714133333333334,50,1167,6583,772033,no_split,wide,individual,1,0.4588813781738281
0,0.0,0.4380966190403677,0.3542002060130216,0.3774224750432615,0.3949160779679817,0.4105681305625866,0.42724681037342027,0.4448815092824387,0.46437299217697015,0.48958381320094674,0.5353652235304712,1.1520332781604443,0.9731216931216932,0.44460719679937877,0.0,0.9590909090909091,50,1167,6634,772033,no_split,wide,individual,1,0.45656752586364746
1,1.0,0.4512585438072333,0.36144182266552505,0.3864635886610391,0.4049340306125996,0.42261418886620045,0.43968261973812883,0.45808030014319123,0.480279466867134,0.5089165615069746,0.5554278805398145,1.0981316445595988,0.9447567567567567,0.44460719679937877,0.0,0.9590909090909091,50,1167,6634,772033,no_split,wide,individual,1,0.45656752586364746
0,0.0,0.4492517230512839,0.3731640405081195,0.3928136041068471,0.4086306891986915,0.4227956809333575,0.43651906319454237,0.45216559605556794,0.4715993413026249,0.49750109838670753,0.5405677422879193,1.001323650316044,0.9876041666666666,0.45595480154893436,0.0,0.97911227154047,50,1167,6844,772033,no_split,wide,individual,1,0.4543929100036621
1,1.0,0.462692974698405,0.38632560785868847,0.4071599439220649,0.42221672857658155,0.4371373102534403,0.4518394146838927,0.4681217604469803,0.4868625658401559,0.5115002865666401,0.5494786256735756,0.9909937679758699,0.9705759162303665,0.45595480154893436,0.0,0.97911227154047,50,1167,6844,772033,no_split,wide,individual,1,0.4543929100036621
0,0.0,0.4309347399641766,0.3416002093447174,0.36615844061347486,0.38481998158172376,0.4013191565598501,0.41745425939201164,0.4348424909075233,0.45572700814281725,0.4838189034835642,0.5323252393849625,1.024040136323168,0.9795789473684211,0.45251041206398745,0.0,0.9482198952879581,50,1167,7624,772033,no_split,wide,individual,1,0.45000433921813965
1,1.0,0.47386133757942533,0.37109174274305706,0.3981663037711165,0.42020441143628706,0.44077832386413646,0.4607065349974511,0.48293505606557946,0.507958918427963,0.5413464515702925,0.5942091365827926,1.2919255023003797,0.9171875,0.45251041206398745,0.0,0.9482198952879581,50,1167,7624,772033,no_split,wide,individual,1,0.45000433921813965
0,0.0,0.40611272030189527,0.333211012989166,0.3518698496739138,0.3663675035794075,0.3794129486297938,0.3937609784992451,0.40893402249431415,0.4260812658144797,0.45097670036782656,0.49436527203733904,0.9755502149125018,0.9677083333333333,0.41118947297619823,0.0,0.9568062827225131,50,1167,7756,772033,no_split,wide,individual,1,0.45567941665649414
1,1.0,0.4163196651523359,0.33927399497819527,0.35908434250493537,0.3740449881476214,0.3883019829703153,0.40330407280274494,0.41955656865054597,0.4384669964967493,0.46626769551965036,0.5114006129451723,0.8809201938247361,0.9457894736842105,0.41118947297619823,0.0,0.9568062827225131,50,1167,7756,772033,no_split,wide,individual,1,0.45567941665649414
0,0.0,0.41595417384977157,0.32626468061728825,0.3518710452860406,0.3703554695242427,0.3867413949655286,0.40354351858039295,0.4210623544216229,0.44132358581264314,0.46946615949489723,0.517449359358715,1.1214950598469362,0.9763829787234043,0.4263335693979685,0.0,0.9515281501340482,50,1167,7768,772033,no_split,wide,individual,1,0.4516563415527344
1,1.0,0.4368812794685686,0.34196641677788636,0.3666651197330761,0.38761101653721436,0.4064518392180926,0.4249189546078861,0.4445550178905817,0.46833093704662726,0.49773527412706003,0.5467183252740501,1.0378859577575192,0.9262702702702703,0.4263335693979685,0.0,0.9515281501340482,50,1167,7768,772033,no_split,wide,individual,1,0.4516563415527344
0,0.0,0.3988469774787313,0.3120184110244084,0.33455003031760366,0.35164424013297546,0.36730590253113277,0.38286499569851107,0.4012832038290955,0.42269687338127904,0.45472735484737553,0.5029800838151373,0.9916076881666782,0.9385340314136126,0.40391821844886244,0.0,0.9254973821989528,50,1167,7807,772033,no_split,wide,individual,1,0.455474853515625
1,1.0,0.4089894594189935,0.3197209462206347,0.3445452059927439,0.3622247123125715,0.37913977935504883,0.395994331699011,0.41408454238283815,0.43750501314509094,0.465783851279504,0.511735066351751,0.9204655784116432,0.9124607329842932,0.40391821844886244,0.0,0.9254973821989528,50,1167,7807,772033,no_split,wide,individual,1,0.455474853515625
0,0.0,0.3927103824850441,0.32253282945482864,0.3382436137866412,0.35087826235416264,0.3633397427193645,0.37684836185158066,0.39134204915073917,0.41005360182757966,0.43685264459293477,0.48492872518866253,0.9375429681396443,0.9741666666666666,0.3991332181968208,0.0,0.9674540682414698,50,1167,7813,772033,no_split,wide,individual,1,0.45687007904052734
1,1.0,0.40565800368180044,0.3284162787408628,0.34640393374639433,0.36026085406815844,0.37461272794657824,0.38899776219908033,0.40631184728898084,0.42737957340626365,0.4571187325147431,0.5044274279168482,0.9729906324328269,0.9606349206349206,0.3991332181968208,0.0,0.9674540682414698,50,1167,7813,772033,no_split,wide,individual,1,0.45687007904052734
0,0.0,0.41127772869229073,0.34997023231405566,0.36743484515403796,0.3802697183995262,0.3927226690680624,0.403877285029428,0.4160466700065088,0.43066450348278856,0.44999455761547397,0.4808283275898267,0.7986252750959172,0.9836649214659686,0.41293658677387846,0.0,0.9814659685863875,50,1167,7828,772033,no_split,wide,individual,1,0.46055126190185547
1,1.0,0.4145954448554661,0.35151792182444447,0.36844469549957826,0.38116274275603246,0.3943322613537421,0.40644470586532444,0.4197564298420914,0.43576494293238055,0.4559251107537209,0.48606095807062816,0.8109455615623705,0.9792670157068063,0.41293658677387846,0.0,0.9814659685863875,50,1167,7828,772033,no_split,wide,individual,1,0.46055126190185547
0,0.0,0.5558432135306899,0.4056182334274272,0.4357043035773939,0.4602077767317427,0.4854958303935823,0.5140443641995158,0.5484671592402766,0.5928539386810886,0.6559541399964651,0.7654944295383949,1.520477128684664,0.9734391534391534,0.5629968284159105,0.0,0.9693617021276596,50,1167,7840,772033,no_split,wide,individual,1,0.462785005569458
1,1.0,0.5702269525512403,0.41611607241867304,0.44698348213467753,0.4746200660269183,0.5032563012185101,0.5339600959134563,0.5682529567406058,0.6128281271754822,0.6718839345200414,0.7724186430457991,1.5716151798688682,0.9652406417112299,0.5629968284159105,0.0,0.9693617021276596,50,1167,7840,772033,no_split,wide,individual,1,0.462785005569458
0,0.0,0.4584332683404863,0.3750154614917839,0.39568226155863756,0.4127113787834445,0.42745772608909344,0.44525024934182167,0.46233264331380475,0.4842096512650894,0.5119867154521065,0.5594378675832754,0.9824300912522256,0.9994764397905759,0.46506347593952185,0.0,0.9990575916230366,50,1167,7924,772033,no_split,wide,individual,1,0.484468936920166
1,1.0,0.4716936835385574,0.3858395669808884,0.4080831515267359,0.42557212457373783,0.4421324891423235,0.4584209415649215,0.4772270785409726,0.5000157681866333,0.5261447196987078,0.5734367747622044,1.0152217405754946,0.9986387434554974,0.46506347593952185,0.0,0.9990575916230366,50,1167,7924,772033,no_split,wide,individual,1,0.484468936920166
0,0.0,0.4472587868114558,0.36921308218961424,0.3912188809978378,0.4076885290276098,0.4222241324041532,0.4369543690489371,0.4528564471407027,0.47112621550033135,0.4961220049274186,0.5369886562954523,0.9196876755465185,0.9946031746031746,0.45635583407668046,0.0,0.9904509283819629,50,1167,7939,772033,no_split,wide,individual,1,0.4858214855194092
1,1.0,0.4655012698911882,0.3814198881757691,0.4033383066144577,0.42229185074888786,0.43725064060163144,0.45319887925009283,0.47090429815413104,0.4922908836864493,0.5205465163553666,0.5646437601338644,0.9391478466078997,0.9862765957446809,0.45635583407668046,0.0,0.9904509283819629,50,1167,7939,772033,no_split,wide,individual,1,0.4858214855194092
0,0.0,0.44569602510561646,0.3461456485555773,0.3704314167397016,0.3908533320769693,0.40855185166961283,0.42800431695048724,0.44876295525490983,0.47241591144913725,0.507811232529749,0.5671716602911593,1.1765103455766681,0.9473033707865168,0.4543528653083591,0.0,0.9297520661157025,50,1167,8026,772033,no_split,wide,individual,1,0.493088960647583
1,1.0,0.46268214939532226,0.35752734552247534,0.3859173081826071,0.40600934350837276,0.42600745775745136,0.445544457863826,0.46715904539383074,0.49515479832148745,0.5324776446962408,0.5899478250931826,1.3200834026949138,0.9128648648648648,0.4543528653083591,0.0,0.9297520661157025,50,1167,8026,772033,no_split,wide,individual,1,0.493088960647583
0,0.0,0.46906466443530476,0.3700600644789226,0.3929582702406182,0.41036486408780753,0.4286664017522843,0.44790435971546905,0.46901150102836436,0.49615921574849714,0.5330452837937897,0.5952327318148762,1.397957481368149,0.9788421052631578,0.47234054693970584,0.0,0.9760526315789474,50,1167,808,772033,no_split,wide,individual,1,0.4908335208892822
1,1.0,0.4756164294441069,0.3749102476984126,0.3984330001040188,0.4176765742972004,0.43642886327137076,0.45639198310666373,0.4776977722766508,0.5049471769303912,0.5421324026281236,0.5996067504097253,1.2649175093668612,0.9732631578947368,0.47234054693970584,0.0,0.9760526315789474,50,1167,808,772033,no_split,wide,individual,1,0.4908335208892822
0,0.0,0.4421492929908888,0.34393637335246563,0.3684811252110967,0.38691657883520253,0.4050207762749261,0.4240650028372899,0.4436249909102097,0.46873189900204154,0.5036329254081413,0.563963859884929,1.2329468409272564,0.9232460732984293,0.44390377861615626,0.0,0.9167101827676241,50,1167,8311,772033,no_split,wide,individual,1,0.4971623420715332
1,1.0,0.4456491262954588,0.3458320013220664,0.36948903795630256,0.3889590961846905,0.4078346122613496,0.4268824207413974,0.44823843930305163,0.4742925357781892,0.5098726325746901,0.5702178592080454,1.0951292573825613,0.9102083333333333,0.44390377861615626,0.0,0.9167101827676241,50,1167,8311,772033,no_split,wide,individual,1,0.4971623420715332
0,0.0,0.45280425460782,0.37151313918831336,0.38999416640996803,0.40537477359269863,0.4197164043301406,0.4341536199468175,0.45065861513719546,0.4731824627341617,0.5058486532024873,0.5563978931018722,1.1671349981902621,0.9720833333333333,0.4586851769277989,0.0,0.9653439153439154,50,1167,833,772033,no_split,wide,individual,1,0.4944798946380615
1,1.0,0.46475580641939,0.3789858685607396,0.3992680823928845,0.41550648575524707,0.43146099454010195,0.4479148129936112,0.46662303928224824,0.4894160345557446,0.5209860138341096,0.5697553553762816,1.132138792417797,0.9583870967741935,0.4586851769277989,0.0,0.9653439153439154,50,1167,833,772033,no_split,wide,individual,1,0.4944798946380615
0,0.0,0.5538810678607682,0.38906537322615004,0.4212863870489241,0.4495037782795201,0.47750758987185327,0.5082501160064488,0.5454763058963653,0.5912392326690841,0.6626553676127995,0.7855413253992547,1.493954435839894,0.9372826086956522,0.5658262196277464,0.0,0.9270810810810811,50,1167,837,772033,no_split,wide,individual,1,0.4960784912109375
1,1.0,0.5776429289026064,0.4070367138534208,0.4437837702317769,0.4753872490801306,0.5056188688726938,0.5371744096853057,0.574751481395077,0.6227329634473738,0.6869694463767919,0.7985978757571237,1.552671178941557,0.916989247311828,0.5658262196277464,0.0,0.9270810810810811,50,1167,837,772033,no_split,wide,individual,1,0.4960784912109375
0,0.0,0.38586141318372674,0.31783102195216895,0.33598833419554514,0.3503805053869748,0.36411008558353575,0.3768232646594555,0.3906344661655558,0.40609278602934107,0.42680605418271506,0.4650122169767407,0.8237374414871625,0.9864921465968587,0.3917642549790248,0.0,0.9779473684210527,50,1167,8446,772033,no_split,wide,individual,1,0.5021700859069824
1,1.0,0.39772956070866455,0.3252844407174069,0.34473903854366383,0.3592410854080535,0.3734860256187151,0.38815215677470616,0.40323067126146905,0.421050950411034,0.4440073955200667,0.48242350797452377,0.8297088845709473,0.9693121693121693,0.3917642549790248,0.0,0.9779473684210527,50,1167,8446,772033,no_split,wide,individual,1,0.5021700859069824
0,0.0,0.41798076912334187,0.33971006806332316,0.36050223920235275,0.3775819246311976,0.3926196666830235,0.4068317014614514,0.4225870768085419,0.44137479887402775,0.46612125011515265,0.5082493461630258,0.9882368636659619,0.9648677248677249,0.4232529346477306,0.0,0.9542021276595745,50,1167,845,772033,no_split,wide,individual,1,0.499697208404541
1,1.0,0.4285814869691716,0.3488025418889176,0.36904358102636603,0.3857801779046429,0.40057548586239905,0.4163950899907545,0.43293244601327485,0.45392754550430464,0.47988020245725527,0.5262213579465685,0.9862496306929937,0.9434224598930482,0.4232529346477306,0.0,0.9542021276595745,50,1167,845,772033,no_split,wide,individual,1,0.499697208404541
0,0.0,0.48549275799353103,0.39012794030993136,0.4135360112203124,0.4326287095237416,0.4514455722973661,0.47045232545563365,0.49015353332452216,0.5132717458324838,0.5459920236569521,0.5992517510418498,1.0638471033312835,0.9583246073298429,0.4872576743882748,0.0,0.9516842105263158,50,1167,8521,772033,no_split,wide,individual,1,0.49452972412109375
1,1.0,0.48904126714698404,0.39399955552379223,0.4187122991389275,0.4392724588693922,0.45670801631545604,0.47382295709975214,0.4929253638290726,0.5159318465786288,0.5489632288714676,0.6041132743594957,1.167757700953266,0.944973544973545,0.4872576743882748,0.0,0.9516842105263158,50,1167,8521,772033,no_split,wide,individual,1,0.49452972412109375
0,0.0,0.5624353574560753,0.4286685272325115,0.45872788970259093,0.4834813527465562,0.5059159874330998,0.5318317482826633,0.5640994210386946,0.6007924652411465,0.6484886606963126,0.7362201108298299,1.5631615457003505,0.9819565217391304,0.5630305101211343,0.0,0.9820967741935483,50,1167,8704,772033,no_split,wide,individual,1,0.49629902839660645
1,1.0,0.5636129999635323,0.43517635703406476,0.4625939835229045,0.4865963475545707,0.5091487736850598,0.5332119437023763,0.5630634459976402,0.5975070319577835,0.6482874151647913,0.7306999816424328,1.414864282024404,0.9822340425531915,0.5630305101211343,0.0,0.9820967741935483,50,1167,8704,772033,no_split,wide,individual,1,0.49629902839660645
0,0.0,0.4458294457475069,0.36023309994456876,0.3806187717804404,0.39665072243340554,0.412256652365968,0.4294075682479346,0.4485205356770618,0.47018431653195214,0.5002387180261506,0.5519795023068398,1.023514508353959,0.9967391304347826,0.450396034272789,0.0,0.996,50,1167,8755,772033,no_split,wide,individual,1,0.4950551986694336
1,1.0,0.455038312110645,0.36722553300219507,0.38846599922987574,0.40537338939748363,0.4221668699267144,0.43929502813986254,0.4578669159182194,0.4804078084203143,0.5114510839716164,0.5638295725257257,1.2505821438301588,0.9952486187845304,0.450396034272789,0.0,0.996,50,1167,8755,772033,no_split,wide,individual,1,0.4950551986694336
0,0.0,0.447271582657331,0.3558025516706828,0.38212831454204804,0.4005358325535223,0.4175951042072791,0.4347617437413859,0.45295496115960665,0.4752698689485306,0.503372945311669,0.5529273610716218,1.1111087244441187,0.9632291666666667,0.45030320152231185,0.0,0.95734375,50,1167,8785,772033,no_split,wide,individual,1,0.4845600128173828
1,1.0,0.4533348203872927,0.36232268153716346,0.386742034617033,0.40541922458849183,0.423109600999738,0.4398055417832538,0.4585468167231148,0.4822773141343137,0.5110475971264908,0.5598534877190522,1.2185806590448802,0.9514583333333333,0.45030320152231185,0.0,0.95734375,50,1167,8785,772033,no_split,wide,individual,1,0.4845600128173828
0,0.0,0.40905976915065406,0.32361792255066224,0.3452438175083965,0.3623107723316195,0.3781078459430023,0.39432785851884433,0.4120698157502948,0.43229403710645825,0.46215561538042216,0.5119052605549635,1.0215748144059205,0.9811640211640211,0.41911605268638086,0.0,0.970132625994695,50,1167,8788,772033,no_split,wide,individual,1,0.48505115509033203
1,1.0,0.4292258270919785,0.333105571515394,0.3571165408200751,0.37605411659824817,0.39411749821349024,0.41277336122329067,0.43404125084743,0.45920490817333415,0.49119999774953804,0.5449613662810693,1.0177916897318813,0.9590425531914893,0.41911605268638086,0.0,0.970132625994695,50,1167,8788,772033,no_split,wide,individual,1,0.48505115509033203
0,0.0,0.47117311778804866,0.358404978018224,0.38045214853125736,0.3991101859220005,0.4194367844090844,0.4404112096448447,0.46687193692078327,0.49975497940115277,0.5460513537337388,0.6246153107199662,1.2572187930714536,0.9664550264550265,0.4778829905550559,0.0,0.9616489361702127,50,1167,916,772033,no_split,wide,individual,1,0.48342370986938477
1,1.0,0.4846646266671649,0.36492355579530367,0.39032390434782016,0.41199172180413596,0.4339617840087851,0.45649819141140147,0.4833388080913744,0.5152602799480048,0.5604324487163983,0.6415621636151051,1.458118017510738,0.9567914438502674,0.4778829905550559,0.0,0.9616489361702127,50,1167,916,772033,no_split,wide,individual,1,0.48342370986938477
0,0.0,0.40691004526842994,0.33028200179317496,0.34898768554722814,0.3644303150631963,0.37882615260753627,0.39374562063704516,0.40975422144263207,0.42977958750453166,0.4550431790802563,0.49977331963748295,1.025490353174288,0.9642105263157895,0.41271484278942433,0.0,0.9506561679790027,50,1167,985,772033,no_split,wide,individual,1,0.4811067581176758
1,1.0,0.4184892487003611,0.33689923926037785,0.35800370923010555,0.3747898070497217,0.3904617110995748,0.4056828273686829,0.4221456530506157,0.4432342260466426,0.47074979929136695,0.5159643737341577,0.9861200249300616,0.93717277486911,0.41271484278942433,0.0,0.9506561679790027,50,1167,985,772033,no_split,wide,individual,1,0.4811067581176758
0,0.0,0.43389080148421805,0.34699830822558925,0.3690889198929433,0.3855937622302268,0.4007666087687776,0.4162316125001027,0.4331525806304092,0.45498787779724015,0.48425714896179906,0.538356124179038,1.1901712176840884,0.9882926829268293,0.4552080541180262,0.0,0.9702010050251256,50,1167,275,772033,no_split,narrow,individual,1,0.4796607494354248
1,1.0,0.47785073178606086,0.3733292077498957,0.39957707482224036,0.420352466497684,0.440646632381696,0.46126781311462073,0.484130156735324,0.5122065929751902,0.5470668608168608,0.6040219098910128,1.2877019793435487,0.9509844559585492,0.4552080541180262,0.0,0.9702010050251256,50,1167,275,772033,no_split,narrow,individual,1,0.4796607494354248
0,0.0,0.46076695825596503,0.36970351336001506,0.39089380932186363,0.4093576725918442,0.4248312838601485,0.4419916758447531,0.4607019804387892,0.4837727548476622,0.5157293409437614,0.5761053472044259,1.2304741401763108,0.9867619047619047,0.4720067537834878,0.0,0.9787373737373737,50,1167,808,772033,no_split,narrow,individual,1,0.4764225482940674
1,1.0,0.4846968455081102,0.3840469887167316,0.4080987747490515,0.42685437964042955,0.4456148390138146,0.46467513496444357,0.4872475942481964,0.514328164662926,0.5510516676951304,0.6114408515146582,1.2633523325312592,0.9696774193548388,0.4720067537834878,0.0,0.9787373737373737,50,1167,808,772033,no_split,narrow,individual,1,0.4764225482940674
0,0.0,0.44876102509040366,0.37288301586298855,0.39218219092594214,0.40724009432344327,0.42074661019074977,0.4341056086583395,0.44885899765225223,0.46732061678992565,0.49376033427098287,0.5421655579728631,1.1074769100023367,0.9758,0.46474044661444275,0.0,0.94176,50,1167,833,772033,no_split,narrow,individual,1,0.47746825218200684
1,1.0,0.48300264264191584,0.39193610037734483,0.41596139471322635,0.43382718155691113,0.4504748923261028,0.4685596327978493,0.48962122470622155,0.512886217454469,0.5438735936568533,0.5914874934756366,1.2292861590163695,0.9028571428571428,0.46474044661444275,0.0,0.94176,50,1167,833,772033,no_split,narrow,individual,1,0.47746825218200684
0,0.0,0.5740492228517474,0.38706645359292147,0.42745856503027385,0.459921599304208,0.4920611232432383,0.5276425242020706,0.570463268535428,0.6229653817233792,0.6968110935389562,0.8295214785551603,1.5935112237082873,0.930261780104712,0.5867998913827083,0.0,0.9095212765957447,50,1167,837,772033,no_split,narrow,individual,1,0.47591638565063477
1,1.0,0.5999640951092678,0.41348370433121634,0.45751793110345496,0.49228742279117393,0.5266886641307835,0.5622896745869375,0.6011573810494243,0.6513471894395784,0.7191610075106271,0.8405513737682986,1.6125553802743247,0.8881081081081081,0.5867998913827083,0.0,0.9095212765957447,50,1167,837,772033,no_split,narrow,individual,1,0.47591638565063477
0,0.0,0.4159870679655177,0.3420561604259801,0.3620188554915062,0.3771646400529096,0.39072469983751923,0.405091435139324,0.4205574188447676,0.4385879722449335,0.46236034732709663,0.5017177180591672,0.9218468856381915,0.9729166666666667,0.4265402205147209,0.0,0.9481818181818182,50,1167,845,772033,no_split,narrow,individual,1,0.469219446182251
1,1.0,0.4376732166105836,0.35406057236638716,0.377003477084525,0.39455699405116873,0.4101931939170784,0.4269520275767593,0.44380801081910787,0.46416433752254205,0.49240352024871814,0.5354382847078909,0.9469316076219618,0.9220879120879121,0.4265402205147209,0.0,0.9481818181818182,50,1167,845,772033,no_split,narrow,individual,1,0.469219446182251
0,0.0,0.4625173683350701,0.355519785134266,0.37700775565991473,0.3947201452740466,0.4128355652671031,0.4317922142860241,0.4549435255871548,0.48664023855900923,0.5302867701682326,0.6086669699095798,1.3874142732718437,0.9827932960893855,0.48190617515180323,0.0,0.9710382513661202,50,1167,916,772033,no_split,narrow,individual,1,0.45967888832092285
1,1.0,0.5004655142972324,0.37866772633281953,0.4058184768994447,0.4279459999887324,0.45056678266248484,0.4745581680472276,0.502317800332887,0.5354893241303793,0.5816808408344084,0.6524763504091273,1.4495008819093673,0.9597860962566845,0.48190617515180323,0.0,0.9710382513661202,50,1167,916,772033,no_split,narrow,individual,1,0.45967888832092285
0,0.0,0.40936781789925136,0.33550698983221633,0.3562970074593219,0.37229901932406956,0.3859356992894504,0.39990085629806105,0.41438053093688587,0.4325976399240337,0.45484761240787747,0.49306107850646524,0.970973447742276,0.9578531073446328,0.41830957543329367,0.0,0.9227642276422764,50,1167,985,772033,no_split,narrow,individual,1,0.4556918144226074
1,1.0,0.42655275815998894,0.34759990111041367,0.3696610156435351,0.38627592688650214,0.4007182545945392,0.41626452645295,0.43273139429932866,0.452169856155505,0.47808874148922653,0.5190348578309124,0.9682932604028787,0.8904166666666666,0.41830957543329367,0.0,0.9227642276422764,50,1167,985,772033,no_split,narrow,individual,1,0.4556918144226074
0,0.0,0.41113792117948295,0.33854735868554336,0.3584672608670415,0.373987655647263,0.38775790126976545,0.4016242503729842,0.4156920101262095,0.43390020663829976,0.45636064746325233,0.4957389486201893,0.9459422250138434,0.9646590909090909,0.42478895042750264,0.0,0.9022105263157895,50,1167,1108,772033,no_split,narrow,individual,1,0.4526536464691162
1,1.0,0.43656630899442156,0.35824862358428955,0.38059024143815556,0.3989114521847396,0.41532014150897645,0.4301270275339824,0.445646284701913,0.4628658170041691,0.4863652484956327,0.5226978447129441,0.9090807639397911,0.8483333333333334,0.42478895042750264,0.0,0.9022105263157895,50,1167,1108,772033,no_split,narrow,individual,1,0.4526536464691162
0,0.0,0.4340547387844803,0.34742312444608436,0.37204944287677183,0.39105657037427144,0.4083009316668795,0.425211397416944,0.44227292856181827,0.46206426296654035,0.48673557004587226,0.5302623445949513,0.9736504502272985,0.9495477386934673,0.44574100608949946,0.0,0.8980835380835381,50,1167,1507,772033,no_split,narrow,individual,1,0.45006537437438965
1,1.0,0.4569216175976668,0.36417211520362675,0.39131016232831073,0.4123927461822698,0.4297286717869957,0.4484956885854029,0.46727458287569396,0.4895980420238369,0.5150254623954755,0.5592076493355604,1.0374739984140553,0.8488461538461538,0.44574100608949946,0.0,0.8980835380835381,50,1167,1507,772033,no_split,narrow,individual,1,0.45006537437438965
0,0.0,0.4499964376601022,0.36034705786437177,0.3851917788263414,0.4037534400726859,0.4207334666556093,0.43650649436550937,0.45577364485183985,0.4771263608843047,0.5062308935526021,0.5543521550176927,0.986316728853311,0.9704301075268817,0.45721985606909965,0.0,0.9604188481675393,50,1167,1538,772033,no_split,narrow,individual,1,0.45306968688964844
1,1.0,0.46407473272253597,0.36911979117085525,0.39527058639742985,0.4155136682838299,0.43286986935971744,0.45094768588602135,0.4711039646036606,0.4941049962574231,0.5243030182836799,0.5751984557954319,1.2410556685698857,0.9509183673469388,0.45721985606909965,0.0,0.9604188481675393,50,1167,1538,772033,no_split,narrow,individual,1,0.45306968688964844
0,0.0,0.4560184565958142,0.36563221702626353,0.3900452870746107,0.40787828433074597,0.4244019768790744,0.4400622355824817,0.45734245432344445,0.4788868220537349,0.5076655440573676,0.5616235742841506,1.27244054798384,0.9924468085106383,0.4872369295681134,0.0,0.9637158469945355,50,1167,1582,772033,no_split,narrow,individual,1,0.44815683364868164
1,1.0,0.5202092493366091,0.4098708036356286,0.43933753349527294,0.4618730289676145,0.4847699555879985,0.5070417110084356,0.5299496959748234,0.5564737565356808,0.5920328475632504,0.6484604352079384,1.2566260990283011,0.9333707865168539,0.4872369295681134,0.0,0.9637158469945355,50,1167,1582,772033,no_split,narrow,individual,1,0.44815683364868164
0,0.0,0.4353295841076238,0.3448716312130972,0.36498388280856975,0.38152131195319366,0.3967630368992759,0.41191619233647625,0.4294529636661277,0.451157685532363,0.48478440805760004,0.5573414380255961,1.4335692393784654,0.978391959798995,0.4639580005977815,0.0,0.9242606516290727,50,1167,1583,772033,no_split,narrow,individual,1,0.4523437023162842
1,1.0,0.49244327500548846,0.386205273705101,0.41504844033577454,0.43678044970631474,0.4571456025384638,0.477870964872606,0.5008726138069617,0.5257646595010439,0.5599458233643464,0.612384608894649,1.4946161505350997,0.8704,0.4639580005977815,0.0,0.9242606516290727,50,1167,1583,772033,no_split,narrow,individual,1,0.4523437023162842
0,0.0,0.5548986826040491,0.40679029436983377,0.4342688209444122,0.45722155251150476,0.48248671756876316,0.5121400299945673,0.5461869277249249,0.590934420073605,0.6557105562351466,0.7649978781373944,1.571665727946358,0.9618579234972677,0.5696981741227871,0.0,0.9483516483516483,50,1167,1597,772033,no_split,narrow,individual,1,0.45519280433654785
1,1.0,0.58466119593455,0.4293239572184294,0.4627644614560178,0.4910576019640019,0.5192398903244831,0.5498767419397999,0.583330567878274,0.6247513504416234,0.6839347469308668,0.7865195154995742,1.5559951098098368,0.934696132596685,0.5696981741227871,0.0,0.9483516483516483,50,1167,1597,772033,no_split,narrow,individual,1,0.45519280433654785
0,0.0,0.4143215099485741,0.32770800197805894,0.3522314811457108,0.36953121803630257,0.38599829893338566,0.4022019817251473,0.4196023699992576,0.43994010189569654,0.46646229469687844,0.5140498314309884,1.1946021647137113,0.9808743169398907,0.43305869210382203,0.0,0.9493333333333334,50,1167,1601,772033,no_split,narrow,individual,1,0.4613914489746094
1,1.0,0.4509175688455427,0.35181001960791053,0.37944454185845633,0.39957399408641997,0.41856643731329396,0.43744607559487625,0.4597053977538139,0.48362818602128366,0.5153295394664003,0.5669869333703303,1.0058364457174191,0.9192708333333334,0.43305869210382203,0.0,0.9493333333333334,50,1167,1601,772033,no_split,narrow,individual,1,0.4613914489746094
0,0.0,0.47648884764549837,0.3628352382762184,0.38876148992347853,0.4103006685840285,0.42949513795098865,0.45119516263027004,0.47306680026734294,0.5008650979205475,0.5421883891679317,0.6205736766303374,1.394146388650031,0.9855445544554455,0.5049086866294091,0.0,0.9662365591397849,50,1167,1614,772033,no_split,narrow,individual,1,0.45905518531799316
1,1.0,0.5386781423632326,0.4002645310407301,0.4348750061018974,0.4638306100035115,0.49037088063163786,0.5187983003664289,0.5476117473724564,0.5826749075500781,0.6289213850400133,0.7029809982630055,1.500265033446346,0.9432941176470588,0.5049086866294091,0.0,0.9662365591397849,50,1167,1614,772033,no_split,narrow,individual,1,0.45905518531799316
0,0.0,0.4770662090362713,0.38400429644376627,0.41150148111886115,0.43178315317516625,0.45042397510629123,0.46826789531797103,0.48678939228691354,0.5074639084351754,0.5336055072657127,0.5785239173876159,1.0483578593993066,0.9814364640883978,0.4905917380165985,0.0,0.9624736842105264,50,1167,1638,772033,no_split,narrow,individual,1,0.46399378776550293
1,1.0,0.5028938523152879,0.4038225780065472,0.4324067057246578,0.45417184442613023,0.4749564208982167,0.49450481660991835,0.5150517127091201,0.5376045509991012,0.5672471771856454,0.6110511288043935,1.2049098822155428,0.9452261306532663,0.4905917380165985,0.0,0.9624736842105264,50,1167,1638,772033,no_split,narrow,individual,1,0.46399378776550293
0,0.0,0.38886634988711977,0.320563272318834,0.33815163335681714,0.35175642014375963,0.3648875541422515,0.3777717113769732,0.39145718686780046,0.40772823141832865,0.42932306143566756,0.4689917790098636,0.9114324434848979,0.9784693877551021,0.40658945260218077,0.0,0.9235579514824798,50,1167,1657,772033,no_split,narrow,individual,1,0.46602439880371094
1,1.0,0.426439327643049,0.33989378363245276,0.36149173771072385,0.37938044622010253,0.39622983595362266,0.41367777440775344,0.4324681384508474,0.45494548637997906,0.48404418567157076,0.5308645807534432,0.9384173602293647,0.8620571428571429,0.40658945260218077,0.0,0.9235579514824798,50,1167,1657,772033,no_split,narrow,individual,1,0.46602439880371094
0,0.0,0.457483851259354,0.3761042850470439,0.3979925466569937,0.414440135378623,0.42923741900505413,0.44512644640512,0.46053860913182093,0.479329969884723,0.5064405164278133,0.554123953611419,1.0380228652061838,0.9834871794871795,0.47535527800454674,0.0,0.9658883248730964,50,1167,1663,772033,no_split,narrow,individual,1,0.4645223617553711
1,1.0,0.49286748009154474,0.40168114797710913,0.4272260849578898,0.4464716201264963,0.46329576266998085,0.48087588787041446,0.5007726047426262,0.5235634740364672,0.5522447892269537,0.5989156701820958,1.107379127080909,0.948643216080402,0.47535527800454674,0.0,0.9658883248730964,50,1167,1663,772033,no_split,narrow,individual,1,0.4645223617553711
0,0.0,0.5004053316168382,0.39477038463260505,0.4211189811028587,0.4409886364583898,0.46010872919151546,0.4804735012379878,0.5036803641816355,0.5306654812799453,0.5684073481774987,0.6305542603074263,1.184948287846958,0.9641988950276243,0.5095276939232967,0.0,0.9508839779005525,50,1167,1761,772033,no_split,narrow,individual,1,0.46240758895874023
1,1.0,0.5186500562297552,0.40627459510932634,0.4348417612324286,0.4574397761029014,0.4793679851739713,0.5004748846262809,0.5246588513342164,0.5532554316140619,0.5908942651543471,0.6528267233746929,1.399318164560254,0.9375690607734807,0.5095276939232967,0.0,0.9508839779005525,50,1167,1761,772033,no_split,narrow,individual,1,0.46240758895874023
0,0.0,0.449251731232444,0.3528418012286347,0.3785847722711267,0.3992419561568307,0.4167698152657374,0.4342693574145652,0.45407072926466924,0.4776062966657142,0.5087518972915982,0.5619174901383458,1.4309151609104505,0.9526086956521739,0.46151120595385675,0.0,0.9218918918918919,50,1167,1768,772033,no_split,narrow,individual,1,0.46787238121032715
1,1.0,0.47363885836643715,0.36610224324103113,0.3954811139249147,0.4181851866061259,0.4385563312999509,0.46019352201012836,0.4817087479802926,0.5084595051830268,0.5409476671657862,0.5964348151136726,1.2232198496271205,0.891505376344086,0.46151120595385675,0.0,0.9218918918918919,50,1167,1768,772033,no_split,narrow,individual,1,0.46787238121032715
0,0.0,0.3770969491029503,0.3016113757777811,0.32614225958416754,0.3434857902442954,0.35816297315630924,0.3725345491050223,0.3876617801598897,0.40439219417404504,0.42546342823913263,0.45517699809642537,0.8219650524164798,0.9494972067039106,0.3848122223012137,0.0,0.8976470588235295,50,1167,1813,772033,no_split,narrow,individual,1,0.46959972381591797
1,1.0,0.39189444744218366,0.311255689740177,0.33614952551095545,0.35549606643811293,0.37144209230905567,0.38676554688675147,0.40408478463132114,0.4216773853264685,0.44395542616240596,0.47712551204760817,0.7588385541050473,0.850051282051282,0.3848122223012137,0.0,0.8976470588235295,50,1167,1813,772033,no_split,narrow,individual,1,0.46959972381591797
0,0.0,0.39393009768242604,0.30848529989401746,0.32933693184316076,0.34563660823540165,0.3601211504684988,0.37540504253824447,0.3931209892851768,0.4136767825611573,0.44420046718229206,0.49814504213627925,1.1270176973649082,0.9806829268292683,0.41360382718380184,0.0,0.9529207920792079,50,1167,1821,772033,no_split,narrow,individual,1,0.47725677490234375
1,1.0,0.43387073445908847,0.33281261508701826,0.3579580612540579,0.3778111955337081,0.39760629418361615,0.418038640463692,0.44013100015610934,0.46820669819981275,0.5015924995064208,0.554705767634769,1.036524665845533,0.924321608040201,0.41360382718380184,0.0,0.9529207920792079,50,1167,1821,772033,no_split,narrow,individual,1,0.47725677490234375
0,0.0,0.3926821261184084,0.3145186990434481,0.33285190143134746,0.34758118058003934,0.36160937653923697,0.376664895551314,0.3928683490344708,0.41388977736560595,0.4434620235876036,0.49243286748323484,0.8824127319891533,0.9792265193370165,0.40000243493681525,0.0,0.9689893617021277,50,1167,3286,772033,no_split,narrow,individual,1,0.4729592800140381
1,1.0,0.40679718312210567,0.3257663391828378,0.34717080209352574,0.3630920661294616,0.3768546384001125,0.39232491045897866,0.409262141627941,0.4293331177942498,0.4584807904004191,0.5042072635662707,1.2668109167434631,0.9594871794871795,0.40000243493681525,0.0,0.9689893617021277,50,1167,3286,772033,no_split,narrow,individual,1,0.4729592800140381
0,0.0,0.4775107137232493,0.37981213512973205,0.4036242725932721,0.4219905499088784,0.44015420951472556,0.4583830737934681,0.47788375919516796,0.49995171127942073,0.5358148173667542,0.601087571612415,1.245133375177954,0.97375,0.49433414536841475,0.0,0.9470879120879121,50,1167,3292,772033,no_split,narrow,individual,1,0.46209096908569336
1,1.0,0.5100837409511227,0.39940421781990093,0.4286383609701994,0.451410152222505,0.4714253408115365,0.49325893114388936,0.51590726740012,0.5447307923915392,0.5803846337588224,0.6382385391376203,1.4528645458890392,0.9221276595744681,0.49433414536841475,0.0,0.9470879120879121,50,1167,3292,772033,no_split,narrow,individual,1,0.46209096908569336
0,0.0,0.3957585260330731,0.32489531282921286,0.34509521411199406,0.36032873225384127,0.37422465744550304,0.3874018816344902,0.40082454106960674,0.4168637047079114,0.43787217480182306,0.47424154210087005,0.8947626087658839,0.9802139037433155,0.41374193820255384,0.0,0.9201038961038961,50,1167,3487,772033,no_split,narrow,individual,1,0.46419310569763184
1,1.0,0.43072627191817453,0.35118269861851636,0.37335832587367007,0.39154770133453487,0.4079435823391444,0.4230732391713762,0.4401009991800308,0.4585160180854608,0.4817257261891837,0.5190302604286466,0.8779431873947401,0.8633333333333333,0.41374193820255384,0.0,0.9201038961038961,50,1167,3487,772033,no_split,narrow,individual,1,0.46419310569763184
0,0.0,0.40470778283818754,0.34993487882671276,0.36637917609410564,0.37908588020223394,0.38987698396616727,0.40035461108421,0.41132043675906044,0.42380430382529344,0.4395359483729187,0.4629372185644678,0.830397965943126,0.9789054726368159,0.41593548832906596,0.0,0.9296954314720812,50,1167,3580,772033,no_split,narrow,individual,1,0.47103047370910645
1,1.0,0.42762859093873723,0.3634219909586248,0.382660207270197,0.397015828624443,0.4097852377124815,0.42198902753621226,0.4346748755614421,0.4498217221307708,0.46935196916835625,0.49984150042813524,0.7941358882032621,0.8784455958549223,0.41593548832906596,0.0,0.9296954314720812,50,1167,3580,772033,no_split,narrow,individual,1,0.47103047370910645
0,0.0,0.4804496234408704,0.37591282678860116,0.40035166911322795,0.4192906538733508,0.43745956029535465,0.4561193666688203,0.4774693728873117,0.5052221032047208,0.5466631375644933,0.6144566190338986,1.5554873012425097,0.9252688172043011,0.49044482518006394,0.0,0.8933701657458564,50,1167,3625,772033,no_split,narrow,individual,1,0.4646909236907959
1,1.0,0.5010079361089844,0.38872326079709063,0.41613086749458383,0.4372639754230672,0.4575929221208056,0.4798965597484712,0.5039780539769196,0.5338626712957788,0.5742911226563546,0.641449581067468,1.3429874259917993,0.8596590909090909,0.49044482518006394,0.0,0.8933701657458564,50,1167,3625,772033,no_split,narrow,individual,1,0.4646909236907959
0,0.0,0.5309005037288274,0.42444756973705294,0.4547792225040571,0.47788012375261085,0.49872851288777315,0.5193915304509087,0.5396948073213653,0.563781890034041,0.596443186939049,0.6499331768399379,1.2237201630293932,0.9902247191011236,0.5485839114048822,0.0,0.9763143631436314,50,1167,3754,772033,no_split,narrow,individual,1,0.46946287155151367
1,1.0,0.5650637363595301,0.4471426581339334,0.48007782362341267,0.5063909450088085,0.5285625891572273,0.5515301403316504,0.5772758448269733,0.6038231740571849,0.6405029198742401,0.6971843689198827,1.325946898201992,0.9633507853403142,0.5485839114048822,0.0,0.9763143631436314,50,1167,3754,772033,no_split,narrow,individual,1,0.46946287155151367
0,0.0,0.40946825883586085,0.3373483565464249,0.35711975704714183,0.3734501293857816,0.3870273692265042,0.40014123362187104,0.4148941483469249,0.43174557462399266,0.4542870373645936,0.4920294148617986,0.8526821071548102,0.9923404255319149,0.42267955202993684,0.0,0.9810362694300518,50,1167,3910,772033,no_split,narrow,individual,1,0.4699864387512207
1,1.0,0.435223608194009,0.3539117054414525,0.3777078291766067,0.39587845629860513,0.41182077929592026,0.4272057813266535,0.4431626267134914,0.4627058106774045,0.48653230280001936,0.526163812148217,0.8458312037377613,0.9703030303030303,0.42267955202993684,0.0,0.9810362694300518,50,1167,3910,772033,no_split,narrow,individual,1,0.4699864387512207
0,0.0,0.39915906917278676,0.33758907209320643,0.352695780470144,0.3643664037509735,0.3751827874573203,0.38714874320724113,0.39977622449804684,0.4158413164373176,0.4376870221481895,0.4763181999533104,0.8314530754887014,0.9859668508287293,0.4085816896629463,0.0,0.9762105263157895,50,1167,4222,772033,no_split,narrow,individual,1,0.4688253402709961
1,1.0,0.4171520128223375,0.3541021850585025,0.37077488069928183,0.38374819876984684,0.395658811280613,0.40777509739233186,0.4206066958926414,0.43691416808857036,0.4578740025644034,0.4923250991626766,0.8374933990621486,0.9673366834170855,0.4085816896629463,0.0,0.9762105263157895,50,1167,4222,772033,no_split,narrow,individual,1,0.4688253402709961
0,0.0,0.4611623346541062,0.35582828047588316,0.3824168101199578,0.4009997819967734,0.41981813119796396,0.4394561136516312,0.46103908752627953,0.487208695244784,0.5265439391075999,0.5909345335032187,1.4082094926126363,0.9346464646464646,0.477839807086059,0.0,0.8869521410579345,50,1167,4264,772033,no_split,narrow,individual,1,0.4664463996887207
1,1.0,0.49443347312388125,0.3754761877214812,0.4064018524505318,0.4300164428667207,0.45242988177694937,0.4744722205259108,0.4993957172347272,0.530376352111391,0.5691161620574426,0.637265686619287,1.2993682733479077,0.8394974874371859,0.477839807086059,0.0,0.8869521410579345,50,1167,4264,772033,no_split,narrow,individual,1,0.4664463996887207
0,0.0,0.4181853731048439,0.35335369043565346,0.3719985186765951,0.3849368132639923,0.3974155662210497,0.4097916539040427,0.4219275313926675,0.437039255689193,0.45723249072052674,0.4916165777183822,0.9186386578742469,0.9940740740740741,0.43697321346819684,0.0,0.9755978260869566,50,1167,5281,772033,no_split,narrow,individual,1,0.4690365791320801
1,1.0,0.4568106538518489,0.374608741115674,0.3961386926189877,0.41382530395654704,0.43012097713001285,0.44709638670127183,0.4642174687570876,0.48436710645418457,0.5104653207662181,0.5554972326968708,1.0149922025419482,0.9560893854748603,0.43697321346819684,0.0,0.9755978260869566,50,1167,5281,772033,no_split,narrow,individual,1,0.4690365791320801
0,0.0,0.4551075732611054,0.3646047970931959,0.3877621881651194,0.40579665782954083,0.42214968862409386,0.4387258452010764,0.4570184523341601,0.4795555359068985,0.511643642717523,0.5675087165718368,1.3005132430827495,0.9953260869565217,0.4752176346339441,0.0,0.9849189189189189,50,1167,5332,772033,no_split,narrow,individual,1,0.46570849418640137
1,1.0,0.49511145878771995,0.3997669570183046,0.42621018354201756,0.44681253934160003,0.466382618128758,0.4836904811439324,0.5028354123536358,0.5263996686295476,0.555653245868324,0.6030788171893242,1.4832381585537342,0.9746236559139785,0.4752176346339441,0.0,0.9849189189189189,50,1167,5332,772033,no_split,narrow,individual,1,0.46570849418640137
0,0.0,0.4491495901988544,0.3679286696889833,0.39104520187177283,0.40968096079092814,0.42436655897262443,0.439138129376629,0.4555469121527494,0.47479056071700143,0.4980038313591154,0.5403506698991215,0.9967238536641229,0.9817258883248731,0.4648777489297077,0.0,0.9538461538461539,50,1167,5575,772033,no_split,narrow,individual,1,0.4678795337677002
1,1.0,0.48093187986223673,0.3878312239719945,0.4144493028493929,0.4340577412915769,0.4517627481660588,0.47028361521718304,0.489311159263622,0.5125450215248213,0.5408460344961025,0.5869731307740788,0.9518473984056679,0.9253886010362694,0.4648777489297077,0.0,0.9538461538461539,50,1167,5575,772033,no_split,narrow,individual,1,0.4678795337677002
0,0.0,0.44642301503049997,0.35860991763885675,0.3816870496442331,0.3999319055838643,0.41632125479260873,0.4326490066674355,0.45009699089216665,0.4715953573609463,0.5011223638410295,0.5509632582393493,1.0880953053286953,0.9481865284974094,0.45662697076293357,0.0,0.9145918367346939,50,1167,5731,772033,no_split,narrow,individual,1,0.47280287742614746
1,1.0,0.4665232695386104,0.3724213622037698,0.39924626232108257,0.419139640339928,0.4366414613485498,0.45455907455012323,0.47394329696424764,0.4958686310575005,0.5253359493893269,0.5699852761876043,1.081640011257854,0.8820100502512562,0.45662697076293357,0.0,0.9145918367346939,50,1167,5731,772033,no_split,narrow,individual,1,0.47280287742614746
0,0.0,0.43428340112956104,0.36153967980604795,0.3844014307252357,0.40015463856236955,0.4146071977113017,0.429026759005924,0.44291055410712293,0.45989471214843497,0.479471890399025,0.5111321036967739,1.1647105360060461,0.9933695652173913,0.45693150441102753,0.0,0.9492098092643052,50,1167,5761,772033,no_split,narrow,individual,1,0.46589064598083496
1,1.0,0.47970336781971523,0.3939480008741211,0.4192318924600344,0.4385992528450373,0.4557848455825707,0.47376106761625913,0.49171341640048716,0.5115665388971078,0.5356653662695624,0.574493389305408,0.9696861926345305,0.9048087431693989,0.45693150441102753,0.0,0.9492098092643052,50,1167,5761,772033,no_split,narrow,individual,1,0.46589064598083496
0,0.0,0.4405448680408392,0.3366793585525254,0.3622372481498546,0.3811412297199691,0.4002834326798577,0.42028059501260095,0.44172281278680037,0.46787183719877345,0.505806696405098,0.5726135446502243,1.3718628810321207,0.9125,0.4441255281504405,0.0,0.8908943089430894,50,1167,5803,772033,no_split,narrow,individual,1,0.46773576736450195
1,1.0,0.4471183186898087,0.34514362152591493,0.37253980125741437,0.39219884621012424,0.41077014498334835,0.429992260171146,0.45156616672717786,0.4758451674218663,0.5105847363186843,0.5706344031153403,1.2798150697808106,0.8728358208955224,0.4441255281504405,0.0,0.8908943089430894,50,1167,5803,772033,no_split,narrow,individual,1,0.46773576736450195
0,0.0,0.48984068405394393,0.372041211045754,0.4036890838024759,0.4275398698596739,0.44898961331178305,0.47071518426009007,0.4944974187316894,0.5203043082539067,0.5584211144936099,0.6282587764922974,1.3785158146649557,0.9699502487562189,0.5145482744369791,0.0,0.9236692506459948,50,1167,5815,772033,no_split,narrow,individual,1,0.45683741569519043
1,1.0,0.5412484124315494,0.4088425358052394,0.4461632574368905,0.47448956491347255,0.49860339716436397,0.5240799373261962,0.551868238538904,0.5838262758298566,0.6252768796994972,0.6917871345367935,1.3887235426578404,0.8736559139784946,0.5145482744369791,0.0,0.9236692506459948,50,1167,5815,772033,no_split,narrow,individual,1,0.45683741569519043
0,0.0,0.41707758698144687,0.3494877273630569,0.36710888827594695,0.3802341233934274,0.3924702757667803,0.40445330651937694,0.41694617545737694,0.4334017768444577,0.4574162223607334,0.4965928125083187,1.2525461844854635,0.9938202247191011,0.4390612763850118,0.0,0.9729155313351499,50,1167,6055,772033,no_split,narrow,individual,1,0.4604458808898926
1,1.0,0.45976549180212584,0.3750920783790916,0.39697508877683724,0.41458114336686025,0.43048175305580416,0.4479873491923534,0.46596138996897285,0.4875422334374376,0.5148502543095678,0.5582499731018242,1.0147126407749676,0.9532275132275132,0.4390612763850118,0.0,0.9729155313351499,50,1167,6055,772033,no_split,narrow,individual,1,0.4604458808898926
0,0.0,0.4621364312744717,0.35467279631076526,0.3786164718493394,0.3972369699249862,0.41631352241366737,0.43519651369483053,0.4584172165206439,0.4863919521234873,0.527826577969989,0.6024920148217603,1.4014899702959822,0.9566326530612245,0.4761984562806358,0.0,0.9311475409836065,50,1167,6109,772033,no_split,narrow,individual,1,0.4566771984100342
1,1.0,0.49241114393480134,0.37078270881303227,0.3989698966307603,0.42287418740134525,0.44591255552815234,0.4700569114291437,0.4963614866901642,0.5275259658999334,0.57006997572108,0.6437054897821112,1.433224967301952,0.9017647058823529,0.4761984562806358,0.0,0.9311475409836065,50,1167,6109,772033,no_split,narrow,individual,1,0.4566771984100342
0,0.0,0.39220951995764086,0.3276914838781854,0.344819793200454,0.3570100265986586,0.36788255685509835,0.3789704552067321,0.3915536448837913,0.4066024409945793,0.4274368404498089,0.46743124285817433,1.0216875802811451,0.985566037735849,0.4167353955324728,0.0,0.9294484412470024,50,1167,6214,772033,no_split,narrow,individual,1,0.4525449275970459
1,1.0,0.4420987400293723,0.35784567907663606,0.38086045336711,0.39892999516788896,0.4149931940366135,0.4318649855508121,0.45062010774431155,0.470533215298733,0.4967653634897579,0.5365347453786433,0.8850811886544334,0.8714146341463415,0.4167353955324728,0.0,0.9294484412470024,50,1167,6214,772033,no_split,narrow,individual,1,0.4525449275970459
0,0.0,0.4573253251764742,0.3643799774576344,0.38921527241084297,0.4077442027136519,0.4254128825377471,0.4427525008995046,0.4618997515065773,0.4854831084310443,0.5148171385171874,0.5671198038726848,1.1111340803754037,0.9328723404255319,0.46079648087177705,0.0,0.9229177718832892,50,1167,6253,772033,no_split,narrow,individual,1,0.4639148712158203
1,1.0,0.4642492706639301,0.3668568434083832,0.3930915026307947,0.4129248778594494,0.4307430049297196,0.44979413129867973,0.4698018636197413,0.4942353619384899,0.5278188988594057,0.5796237180469881,1.0648594529230686,0.9130158730158731,0.46079648087177705,0.0,0.9229177718832892,50,1167,6253,772033,no_split,narrow,individual,1,0.4639148712158203
0,0.0,0.46008799758454166,0.3794330751845722,0.4044783219794627,0.42256123841089976,0.43884738134121537,0.45392133429152876,0.4709061992528233,0.4884761077850596,0.5108497355974272,0.5454433466115615,0.9089393883272247,0.9720441988950276,0.4722250972545651,0.0,0.9257065217391305,50,1167,6262,772033,no_split,narrow,individual,1,0.46079468727111816
1,1.0,0.4839727712667267,0.3936804491089493,0.4206125551570826,0.44132615571105305,0.45994299626716834,0.47692592581226556,0.4954251344798613,0.5167242544989951,0.5436453839902887,0.5834929684199055,0.9715385437708192,0.880855614973262,0.4722250972545651,0.0,0.9257065217391305,50,1167,6262,772033,no_split,narrow,individual,1,0.46079468727111816
0,0.0,0.4976780246984349,0.4088163932867452,0.43134552388132263,0.4492641665969742,0.465349814857548,0.4819430094944148,0.5001648120104635,0.5227242874602797,0.5545348230195606,0.6066956749842065,1.2285346151445404,0.9873796791443851,0.5133253397114153,0.0,0.97375,50,1167,6361,772033,no_split,narrow,individual,1,0.46776652336120605
1,1.0,0.5294913502496879,0.42958220006825604,0.4566630409300732,0.4772739268050919,0.49707325407783587,0.5159412614175567,0.535650380824223,0.5608063930844114,0.5940544839086099,0.6463317283336798,1.234240515315201,0.9596685082872928,0.5133253397114153,0.0,0.97375,50,1167,6361,772033,no_split,narrow,individual,1,0.46776652336120605
0,0.0,0.4145531921042835,0.344196153463429,0.3655568293998449,0.3810510220376398,0.3938765052846168,0.407555000608358,0.42111852232401387,0.43749701654099,0.45906575559038865,0.49182156183429754,0.8889609619727052,0.9712568306010929,0.4235037948624534,0.0,0.9435789473684211,50,1167,6427,772033,no_split,narrow,individual,1,0.47072577476501465
1,1.0,0.43181831417588035,0.3572985192050111,0.38011969736103607,0.39604062405124824,0.4117146094066818,0.42615966581541065,0.4412818592776622,0.45795294202171294,0.478799724919423,0.5120960859407909,0.8220699789217372,0.9178680203045685,0.4235037948624534,0.0,0.9435789473684211,50,1167,6427,772033,no_split,narrow,individual,1,0.47072577476501465
0,0.0,0.46159968100202586,0.3820387929622894,0.4009423265368025,0.41575391716813376,0.4295008385770706,0.44438469705708716,0.4611324124548897,0.48163833622173546,0.5111342379755156,0.563292424749023,1.073713128152958,0.972565445026178,0.4702204322320368,0.0,0.9612664907651715,50,1167,6583,772033,no_split,narrow,individual,1,0.46863698959350586
1,1.0,0.4789787486412501,0.3933273385080408,0.4136527959435467,0.43106624818010036,0.44677305969957504,0.4640837009499954,0.48257909602622434,0.5041761771019126,0.5337674450729184,0.5831409238145663,1.1000272953343693,0.9497872340425532,0.4702204322320368,0.0,0.9612664907651715,50,1167,6583,772033,no_split,narrow,individual,1,0.46863698959350586
0,0.0,0.434956721372536,0.35349633374849254,0.3768307687569767,0.3942531653189918,0.41010012057810935,0.42525666566696396,0.4408316138940141,0.46066913779979685,0.48454875383636614,0.5240027774402668,1.0987474462284226,0.9857435897435898,0.4580693759579785,0.0,0.9440512820512821,50,1167,6634,772033,no_split,narrow,individual,1,0.468977689743042
1,1.0,0.4811820305434209,0.3826647113991746,0.4101565809221832,0.4319143827620022,0.451237656220734,0.4705747083284869,0.4919453557803533,0.5149038736737135,0.5446864967958728,0.5918385376942995,1.132412794237854,0.9023589743589744,0.4580693759579785,0.0,0.9440512820512821,50,1167,6634,772033,no_split,narrow,individual,1,0.468977689743042
0,0.0,0.451012624957158,0.37711429150259745,0.39711042682567144,0.4131076119433523,0.4276014638478616,0.4418837067750292,0.45646169430513517,0.4731772986653661,0.495228657677267,0.5326000795661365,0.9844326494584109,0.992,0.4796396102551755,0.0,0.9395733333333334,50,1167,6844,772033,no_split,narrow,individual,1,0.46927499771118164
1,1.0,0.509040297858545,0.41002989634774756,0.4357356744325483,0.45771001153320745,0.47759886566936477,0.4971606217547922,0.5179357993881059,0.5423012867650665,0.5752463665538805,0.6233476056459635,1.1306261731534437,0.8857297297297297,0.4796396102551755,0.0,0.9395733333333334,50,1167,6844,772033,no_split,narrow,individual,1,0.46927499771118164
0,0.0,0.4401545197396514,0.35520172262726946,0.38014251083441325,0.397975425399471,0.41426497797457645,0.4290153109631986,0.4448048467842343,0.46454606766869994,0.49073567453098893,0.5350233017588084,0.9482538600412597,0.9754098360655737,0.45690000661982344,0.0,0.9251771117166212,50,1167,7624,772033,no_split,narrow,individual,1,0.46355605125427246
1,1.0,0.473554485419125,0.37706618152562,0.404577619981562,0.4258348930708369,0.44423201511166266,0.4625778811746887,0.4832273801287771,0.5061514779987367,0.5351634542287855,0.5822420494817667,1.0019195900020101,0.8752173913043478,0.45690000661982344,0.0,0.9251771117166212,50,1167,7624,772033,no_split,narrow,individual,1,0.46355605125427246
0,0.0,0.40626922793514186,0.34196625193435365,0.359591167607564,0.37304108277249304,0.38454215366113176,0.3962299066098641,0.408309200669653,0.4232799628743003,0.4443076836995129,0.48106104675694716,0.9331948938941139,0.9737967914438502,0.42293947362950335,0.0,0.9140469973890339,50,1167,7756,772033,no_split,narrow,individual,1,0.47075605392456055
1,1.0,0.43884424885830736,0.36313446488295076,0.3837694810643417,0.3999412420983885,0.41488461692780293,0.42949219671411754,0.4456226998865128,0.4643379524000903,0.4870596337172418,0.5256741257144091,0.9664473900501446,0.8570408163265306,0.42293947362950335,0.0,0.9140469973890339,50,1167,7756,772033,no_split,narrow,individual,1,0.47075605392456055
0,0.0,0.4283462756452303,0.3345783684541314,0.36083675903770523,0.37998973518881435,0.39874753472916985,0.4161393275455809,0.43543277872796743,0.45749100409745364,0.48716594189690987,0.5354700873098271,1.0120219841760212,0.9776041666666667,0.4401123366697245,0.0,0.9600534759358289,50,1167,7768,772033,no_split,narrow,individual,1,0.4679083824157715
1,1.0,0.45252488456369633,0.35217717218479444,0.3801143786708674,0.4017883556911335,0.4221196045508388,0.4402579435049042,0.4617427841073189,0.4848491651532318,0.5162603281750906,0.5661828217119004,1.138622709350592,0.9415384615384615,0.4401123366697245,0.0,0.9600534759358289,50,1167,7768,772033,no_split,narrow,individual,1,0.4679083824157715
0,0.0,0.3990559999967751,0.31419308275026203,0.33641902017054864,0.3544681681833672,0.37077130254234175,0.3861758112055297,0.40313812798562193,0.4223708731308719,0.44960184064512876,0.4982346680648274,0.9416838438491643,0.9711229946524064,0.419001500521642,0.0,0.9141397849462366,50,1167,7807,772033,no_split,narrow,individual,1,0.47171521186828613
1,1.0,0.4391626280792101,0.33848198793563905,0.3661826201498759,0.3864301872384947,0.4059723849703935,0.426320865760851,0.44779085505603966,0.47102185673782043,0.5040004182492788,0.5573670974630737,1.1688168373353534,0.8565405405405405,0.419001500521642,0.0,0.9141397849462366,50,1167,7807,772033,no_split,narrow,individual,1,0.47171521186828613
0,0.0,0.39577811781205574,0.324127189951582,0.3422498885811268,0.35612402786848557,0.3691253047879557,0.38185994020208125,0.3956892115722336,0.4134695709616443,0.43837620679143213,0.48504229089490386,0.9536736490045576,0.9808791208791209,0.41117743249247035,0.0,0.9483102493074792,50,1167,7813,772033,no_split,narrow,individual,1,0.4739656448364258
1,1.0,0.4268348362457411,0.3432434354419703,0.36501354909036365,0.3815953008166128,0.3981493387387488,0.4142019507514794,0.43148583084605296,0.4527004072781279,0.4809008759138721,0.5260426287847682,0.9047736644289908,0.915195530726257,0.41117743249247035,0.0,0.9483102493074792,50,1167,7813,772033,no_split,narrow,individual,1,0.4739656448364258
0,0.0,0.4130449878139374,0.3536399033205126,0.3712045094738879,0.3843704750579431,0.3957575660932314,0.40696406509508265,0.41852497669173855,0.43175646573036947,0.44917593785709425,0.47941203946136035,0.8598891632287141,0.9892553191489362,0.4294613255031223,0.0,0.9463861386138613,50,1167,7828,772033,no_split,narrow,individual,1,0.4774134159088135
1,1.0,0.4437496194177834,0.3788866441836019,0.39945319719057315,0.4141307702996621,0.4269168064708128,0.43909622932338305,0.4518297966400635,0.4665464263503534,0.4851119895980995,0.5130159409241409,0.7574601922496257,0.909074074074074,0.4294613255031223,0.0,0.9463861386138613,50,1167,7828,772033,no_split,narrow,individual,1,0.4774134159088135
0,0.0,0.540644725551406,0.40394973875971135,0.432789107040982,0.4580396564298267,0.48093483632084605,0.5048403463633364,0.5339060067259288,0.5728127234846114,0.6272687648462919,0.7255055158573609,1.608094339431158,0.9814814814814815,0.5616868922987066,0.0,0.9662532299741602,50,1167,7840,772033,no_split,narrow,individual,1,0.475064754486084
1,1.0,0.5817725969211298,0.43263058790885833,0.4684498146047897,0.4977471806002407,0.5254889620469105,0.5529568903077966,0.5851803632463833,0.6258353122081771,0.6756543102193332,0.7670880284424954,1.557263003369453,0.9517171717171717,0.5616868922987066,0.0,0.9662532299741602,50,1167,7840,772033,no_split,narrow,individual,1,0.475064754486084
0,0.0,0.47487162226445717,0.3932805046996383,0.41457827653534207,0.43177515541105066,0.44806410029601607,0.46285282868559807,0.47881022691792124,0.49797076560534853,0.5256137009447482,0.5707641690180226,1.0804419244930996,0.9987777777777778,0.49740968315490325,0.0,0.9938133333333333,50,1167,7924,772033,no_split,narrow,individual,1,0.47810935974121094
1,1.0,0.5182140470537765,0.42742792232268073,0.454360890043317,0.473335752667292,0.49051018076240793,0.5080341477839734,0.5260102631958989,0.5471141417572531,0.5740775760929868,0.6195933436352634,1.1357666016539882,0.9892307692307692,0.49740968315490325,0.0,0.9938133333333333,50,1167,7924,772033,no_split,narrow,individual,1,0.47810935974121094
0,0.0,0.46435802341869825,0.3786327834704368,0.4000023900095497,0.4176352785152543,0.4337835394100983,0.4492841217197622,0.4669231556629062,0.4886648136960402,0.5185130414331616,0.5668240221348437,1.1554887866755352,0.9838947368421053,0.47726156032869493,0.0,0.9721012658227848,50,1167,7939,772033,no_split,narrow,individual,1,0.47588610649108887
1,1.0,0.48922093600137473,0.3969748954195286,0.4223310570025083,0.44164622922852864,0.4597262771697866,0.4775092355397814,0.495979904426526,0.5190405560119123,0.5477263693421635,0.596739938126205,1.0328228979885035,0.961170731707317,0.47726156032869493,0.0,0.9721012658227848,50,1167,7939,772033,no_split,narrow,individual,1,0.47588610649108887
0,0.0,0.44951723234831953,0.3696197769860669,0.389473500359067,0.405081572430111,0.4192982922520489,0.4337946035161364,0.44948869146909487,0.46843819404409837,0.49754824885100196,0.5493909019815131,1.0739670588860841,0.9535757575757575,0.45856083092410066,0.0,0.9181920903954802,50,1167,8026,772033,no_split,narrow,individual,1,0.4766538143157959
1,1.0,0.4664560360299413,0.383433477513338,0.40538876964043064,0.4219930770703212,0.437551739278183,0.45312669488977886,0.47125952931226744,0.49251347953039076,0.51843084576078,0.5659400164582393,1.22612093559762,0.8873015873015873,0.45856083092410066,0.0,0.9181920903954802,50,1167,8026,772033,no_split,narrow,individual,1,0.4766538143157959
0,0.0,0.44061823252558163,0.34208953453699076,0.36732957446735853,0.387370452978921,0.40490580663786635,0.42284057796718466,0.4425062228772176,0.4667126234294582,0.5007122119289596,0.5610523527741971,1.2865926223541087,0.9271657754010695,0.4503289398043534,0.0,0.8824657534246575,50,1167,8311,772033,no_split,narrow,individual,1,0.4785478115081787
1,1.0,0.4605306379005912,0.3546597396540981,0.38240088419168616,0.4035570552777574,0.4248143986082297,0.44441549133593894,0.46634514220028156,0.49354827975396354,0.5287955149366772,0.5849123347163042,1.2513851760547867,0.8355056179775281,0.4503289398043534,0.0,0.8824657534246575,50,1167,8311,772033,no_split,narrow,individual,1,0.4785478115081787
0,0.0,0.3791859905309646,0.3128386964071553,0.3323951256985828,0.3470361116101015,0.35969914043401185,0.37236047838462594,0.3854162415435528,0.39987636936303694,0.41950575330743856,0.449512526325738,0.8891615291870542,0.9887046632124352,0.40326282334075875,0.0,0.9187533875338754,50,1167,8446,772033,no_split,narrow,individual,1,0.48516201972961426
1,1.0,0.4296652593196808,0.34154505413755765,0.3657386733304432,0.38468585140335426,0.40161481974030083,0.4204034040495198,0.4395644158502918,0.46114295876065536,0.4874482941923281,0.5293101516499621,1.094968231303811,0.8420454545454545,0.40326282334075875,0.0,0.9187533875338754,50,1167,8446,772033,no_split,narrow,individual,1,0.48516201972961426
0,0.0,0.4803012822189185,0.3970842584193563,0.418361326686286,0.4337084010302424,0.4495963293155941,0.4657584775235809,0.4824457708529564,0.5034008504754653,0.5310439158968644,0.5817451981708228,1.1066681970685475,0.9829145728643216,0.4930569389678805,0.0,0.964,50,1167,8521,772033,no_split,narrow,individual,1,0.49015140533447266
1,1.0,0.5067041201132754,0.41309798489188426,0.43649068099778193,0.4557183284663405,0.4731182260061617,0.49118885685298297,0.5128445464400809,0.5356524706148532,0.5688623219103882,0.6203849085668802,1.0891028840608996,0.943763440860215,0.4930569389678805,0.0,0.964,50,1167,8521,772033,no_split,narrow,individual,1,0.49015140533447266
0,0.0,0.5499479164096904,0.4322726164449783,0.46109245008538147,0.48479616131508446,0.5061325826800801,0.526752684880015,0.5522567334410949,0.5824551056119848,0.6226813180900165,0.6984885458930815,1.4143272771815938,0.9886338797814208,0.563237315443046,0.0,0.9802292263610315,50,1167,8704,772033,no_split,narrow,individual,1,0.4987332820892334
1,1.0,0.5778876770280102,0.45238357080111946,0.4856616242308896,0.5106442056630726,0.535079698455029,0.5600281779521468,0.5855029883613077,0.617358649703218,0.658065163068462,0.723588581616484,1.4828333926231394,0.9709638554216867,0.563237315443046,0.0,0.9802292263610315,50,1167,8704,772033,no_split,narrow,individual,1,0.4987332820892334
0,0.0,0.4354993158572827,0.352560308285769,0.37181869749972685,0.38742340605084463,0.4022007951909793,0.41678756068525213,0.43392907268555,0.4549678557386714,0.48683590125985476,0.5376067812397957,1.229515015350961,0.9955555555555555,0.45680220173037106,0.0,0.9862886597938144,50,1167,8755,772033,no_split,narrow,individual,1,0.48602890968322754
1,1.0,0.4811651706570524,0.378478958789321,0.4037200192186199,0.4241379406199017,0.4437800083957046,0.4639122068183547,0.48666290548057783,0.5129661050173542,0.54668007700556,0.6054622640882149,1.2381367280200875,0.9756906077348066,0.45680220173037106,0.0,0.9862886597938144,50,1167,8755,772033,no_split,narrow,individual,1,0.48602890968322754
0,0.0,0.45408360181976526,0.3629809961631522,0.3877423079194321,0.4061968663756301,0.42258174314543157,0.44027219047235544,0.4583903526394286,0.47874157400105377,0.5087115858200941,0.5608319137416664,1.1827794060865688,0.9738461538461538,0.46961324477068184,0.0,0.9445,50,1167,8785,772033,no_split,narrow,individual,1,0.4841148853302002
1,1.0,0.4864370246341749,0.387532746630387,0.4144274196710081,0.43538670849200867,0.4554365642852009,0.47462173375682426,0.49457244333023154,0.5194987230529482,0.5504415761571686,0.6001657510917462,1.2370966433897956,0.9127083333333333,0.46961324477068184,0.0,0.9445,50,1167,8785,772033,no_split,narrow,individual,1,0.4841148853302002
0,0.0,0.4013045618959753,0.3239955702479076,0.3420719687618441,0.35637094632085153,0.3703092845238241,0.3836704647960758,0.3990874280148676,0.4176483445129213,0.4450087211038032,0.498940957550435,1.1171624745624948,0.9598936170212766,0.4216083315839638,0.0,0.892853470437018,50,1167,8788,772033,no_split,narrow,individual,1,0.48417115211486816
1,1.0,0.44059892213790336,0.34789760354548316,0.3709061356396483,0.39007600803390363,0.40881833460801803,0.42587007242805175,0.44578286942992246,0.4696173215615195,0.5010210575735862,0.5508274091519717,1.0424419534703562,0.8301492537313433,0.4216083315839638,0.0,0.892853470437018,50,1167,8788,772033,no_split,narrow,individual,1,0.48417115211486816
0,0.0,0.42869519028308156,0.3748092775503792,0.39058395470457374,0.40182124629014315,0.41144081015540546,0.4210339431423962,0.43160523751533747,0.44436558295592926,0.4609294320613849,0.488311216217585,1.0937008144540472,0.9921111111111112,0.4462196777603459,0.0,0.9551912568306011,50,1167,161753,772033,no_split,narrow,individual,1,0.4943721294403076
1,1.0,0.4631788591899565,0.3982253562044215,0.41653735474063447,0.43067601331320865,0.44344623654105214,0.45651013659293105,0.46995428806609135,0.4855389098329783,0.5048289588866008,0.5367662647179438,0.8735249503277854,0.9194623655913978,0.4462196777603459,0.0,0.9551912568306011,50,1167,161753,772033,no_split,narrow,individual,1,0.4943721294403076
0,0.0,0.4365644250443504,0.36567002783041225,0.38436459365558595,0.39902886394672193,0.41140110301499844,0.42420384017250956,0.4396522528271744,0.4558907635933242,0.4784240979087763,0.5205168721849021,1.0722406803733318,0.9971134020618557,0.4601612674857115,0.0,0.9869148936170212,50,1167,337788,772033,no_split,narrow,individual,1,0.499035120010376
1,1.0,0.48531394569243713,0.39332606534780207,0.4165983172115374,0.4365844002755701,0.4557651336590108,0.4737646866213052,0.4937449542773908,0.51586927005496,0.5452330715151994,0.5919738930256451,1.1075817154304661,0.976043956043956,0.4601612674857115,0.0,0.9869148936170212,50,1167,337788,772033,no_split,narrow,individual,1,0.499035120010376
