,congruency,mean_rt,qu10_rt,qu20_rt,qu30_rt,qu40_rt,qu50_rt,qu60_rt,qu70_rt,qu80_rt,qu90_rt,qu100_rt,mean_acc,mean_rt_overall,nonconvergent_trials,accuracy_overall,n_posterior_draws,condition,id,slurm_id,split,spacing,estimation_level,number_parts,time_post_sampling_sec
0,0.0,0.42365511381705406,0.3351172747437515,0.35273467310584844,0.36816026865332635,0.3848205678007489,0.40294626712005444,0.4237453450875324,0.4494680638654096,0.4831149504753527,0.5414072927202791,1.1050401596368704,0.9821052631578947,0.4305826465377447,0.0,0.976984126984127,50,1161,1108,772029,no_split,wide,individual,1,0.4677705764770508
1,1.0,0.4375838764150384,0.34242246969734885,0.36449331236408195,0.38248010536166127,0.4003076673385202,0.42053111143044314,0.4430800520228948,0.4681491067863931,0.5003171489926785,0.5536085087385489,1.093023576665635,0.9718085106382979,0.4305826465377447,0.0,0.976984126984127,50,1161,1108,772029,no_split,wide,individual,1,0.4677705764770508
0,0.0,0.44883511931141384,0.34167932590577266,0.365622780734406,0.38630231451894786,0.40647441154317143,0.4272030758324665,0.45202332811598417,0.4828666425528227,0.5204157192995613,0.5816598990606766,1.1296543821181078,0.988042328042328,0.4552518433437168,0.0,0.9872105263157894,50,1161,1507,772029,no_split,wide,individual,1,0.4568185806274414
1,1.0,0.4616013765484565,0.34893957709069273,0.37664861563248253,0.3996100161402913,0.421249958941667,0.4435059879424559,0.46866046618987167,0.49894168784639914,0.5346771524355526,0.5935016660164186,1.2116543821181078,0.9863874345549738,0.4552518433437168,0.0,0.9872105263157894,50,1161,1507,772029,no_split,wide,individual,1,0.4568185806274414
0,0.0,0.45892624348162425,0.35766370441822076,0.378834506831169,0.3984773493157308,0.4184856135403243,0.4388707972752749,0.4624429835387238,0.49055890648090517,0.5272960440719506,0.5849642416850224,1.1484902516089555,0.9934736842105263,0.46637544447623663,0.0,0.9891863517060367,50,1161,1538,772029,no_split,wide,individual,1,0.44995975494384766
1,1.0,0.47378564441852145,0.3670190327350856,0.3932232954632504,0.4145589064809052,0.43697975819975476,0.45863873754118134,0.4821127235723337,0.5086585781190943,0.5451143350511453,0.5989912964836752,1.0143107466597934,0.9849214659685864,0.46637544447623663,0.0,0.9891863517060367,50,1161,1538,772029,no_split,wide,individual,1,0.44995975494384766
0,0.0,0.4705929655027267,0.3692159953091698,0.3928114783989027,0.4132353350658178,0.4328060802713272,0.45364489903947314,0.47561800953482264,0.5027217630303008,0.536446983255475,0.5941748330846256,1.1224382179225378,0.9928260869565217,0.4756840941748771,0.0,0.9914594594594595,50,1161,1582,772029,no_split,wide,individual,1,0.4519050121307373
1,1.0,0.4807204795279722,0.3761518531077152,0.4006436196167142,0.42291565532227343,0.4430282341343806,0.4645301360323391,0.4878397888114318,0.5152232787657837,0.5507904648345692,0.6050511552490982,1.0174891856511934,0.9901075268817204,0.4756840941748771,0.0,0.9914594594594595,50,1161,1582,772029,no_split,wide,individual,1,0.4519050121307373
0,0.0,0.4431847538153509,0.3410842657956044,0.3628471169623961,0.38223415192557786,0.40125521407607817,0.4214066589406811,0.4456132683180281,0.47364613324418553,0.512204730884582,0.5729588343538659,1.0840106734094435,0.9916230366492147,0.45476038160915294,0.0,0.9858485639686684,50,1161,1583,772029,no_split,wide,individual,1,0.45058417320251465
1,1.0,0.46627571967486225,0.35126448057959436,0.38029734775327884,0.40385169649133296,0.42715472012775185,0.4500797039925066,0.4749616214531703,0.5030595238305939,0.5406249860606236,0.6006098080224785,1.137240068887336,0.9801041666666667,0.45476038160915294,0.0,0.9858485639686684,50,1161,1583,772029,no_split,wide,individual,1,0.45058417320251465
0,0.0,0.5508208205512413,0.3528836796505761,0.4024709227642734,0.4442996469704963,0.4839353910604907,0.5224694515196301,0.5673038573714627,0.6156222293070077,0.6776145436145689,0.7829154867751115,1.4489398146857122,0.9540112994350283,0.5560608410392278,0.0,0.9719230769230769,50,1161,1597,772029,no_split,wide,individual,1,0.45281052589416504
1,1.0,0.5610206465278568,0.36213074027797765,0.41680119104488267,0.4586847371360397,0.4963131894479553,0.5351225041856071,0.5783239874382584,0.626349751753213,0.6866916339918616,0.7824891992267643,1.4773101729729123,0.9888770053475936,0.5560608410392278,0.0,0.9719230769230769,50,1161,1597,772029,no_split,wide,individual,1,0.45281052589416504
0,0.0,0.4118249899002475,0.32646197326775694,0.3476656133594728,0.36591669402585275,0.3826190139272915,0.4002128863739919,0.41871517981476575,0.44126426003044983,0.47016950026342336,0.510764430031168,0.7936670223710859,0.998,0.42108155093343735,0.0,0.9964116094986807,50,1161,1601,772029,no_split,wide,individual,1,0.4526703357696533
1,1.0,0.4303870884800303,0.3360222799776407,0.3611685369024072,0.3827675122726864,0.40072842217211496,0.4192987259981437,0.44086974656147176,0.4640423753622261,0.4935226298054165,0.5369691129285831,0.8586336926562917,0.9948148148148148,0.42108155093343735,0.0,0.9964116094986807,50,1161,1601,772029,no_split,wide,individual,1,0.4526703357696533
0,0.0,0.4865885197661644,0.3453907122504939,0.37479036338704375,0.4003869855872332,0.42753881202205557,0.4552118844807087,0.48878587573004584,0.5266845383612715,0.581405777288679,0.6655446611315136,1.394195554551461,0.9823157894736843,0.490570046081954,0.0,0.9783157894736842,50,1161,1614,772029,no_split,wide,individual,1,0.45115232467651367
1,1.0,0.4945515723977434,0.3514356635979836,0.3841088299208211,0.4121088299208211,0.4394568754855875,0.46839908379263595,0.49875479963693453,0.5374581930763062,0.5898229034026261,0.667694834600498,1.3687903633870437,0.9743157894736842,0.490570046081954,0.0,0.9783157894736842,50,1161,1614,772029,no_split,wide,individual,1,0.45115232467651367
0,0.0,0.4333107541909285,0.36940381903858205,0.38485153218163026,0.3985935024571541,0.41170691417339444,0.4252368042241834,0.4390291698641786,0.4563961537299021,0.4767562618501147,0.5073220313112174,1.023744194246588,0.9990526315789474,0.441165782509757,0.0,0.9978477690288714,50,1161,161753,772029,no_split,wide,individual,1,0.4524681568145752
1,1.0,0.4489796850258692,0.37784542685012923,0.397281284520128,0.41379527162117,0.42753359931625645,0.4420377731974261,0.4572975832365638,0.47489937979332036,0.4960108237002288,0.52788059331665,0.815744194246588,0.9966492146596858,0.441165782509757,0.0,0.9978477690288714,50,1161,161753,772029,no_split,wide,individual,1,0.4524681568145752
0,0.0,0.47394521476102075,0.36028534010526975,0.3853592708544646,0.408831643866511,0.43160170529224356,0.4543518570386229,0.4817432572286072,0.5117711767742095,0.5504615748279046,0.6140360260651303,1.223005788047547,0.9935106382978723,0.47752080983203626,0.0,0.9910817941952507,50,1161,1638,772029,no_split,wide,individual,1,0.45093750953674316
1,1.0,0.48104024372392595,0.36568308593579235,0.3939766971839123,0.4172769916361509,0.44107820628991556,0.466064103891427,0.4898052810641988,0.5191817649442502,0.5557339507134066,0.6153580468081487,1.142883811154447,0.9886910994764397,0.47752080983203626,0.0,0.9910817941952507,50,1161,1638,772029,no_split,wide,individual,1,0.45093750953674316
0,0.0,0.4014529877620882,0.32213618968802754,0.3385685503266916,0.35400573072429015,0.36930058978217767,0.3853575401405059,0.4027702893221667,0.4242964609453274,0.45357703592986864,0.5017795946173073,1.028878484890478,0.9882105263157894,0.40973258198511275,0.0,0.9835883905013193,50,1161,1657,772029,no_split,wide,individual,1,0.47109079360961914
1,1.0,0.4180559835849788,0.32773301791884646,0.3485685503266916,0.36752052502463417,0.38476796299838156,0.4031434055816842,0.4233578333227246,0.44709550920984964,0.4770955092098496,0.5262660677785039,1.0257795946173074,0.9789417989417989,0.40973258198511275,0.0,0.9835883905013193,50,1161,1657,772029,no_split,wide,individual,1,0.47109079360961914
0,0.0,0.47217774094480786,0.379195218026669,0.39914476861891574,0.4168039649176796,0.43470660101871555,0.45368734407758804,0.4737815632555769,0.4988479207994648,0.5335499652449768,0.5898781226510939,1.1915450883571903,0.9929787234042553,0.48123229289797687,0.0,0.9886243386243386,50,1161,1663,772029,no_split,wide,individual,1,0.46906065940856934
1,1.0,0.4901915337779545,0.38853857215269355,0.4144721229603512,0.4343180537156417,0.45454430760310754,0.47546594862803293,0.4973922237248234,0.5248728477929135,0.5571952180266689,0.608289884228162,1.054063441586672,0.9843157894736843,0.48123229289797687,0.0,0.9886243386243386,50,1161,1663,772029,no_split,wide,individual,1,0.46906065940856934
0,0.0,0.5144450948063121,0.3736375116479708,0.4046504421015926,0.4331788084542579,0.4623127186593904,0.4905250576730238,0.5229432161563005,0.5606118199547204,0.6106942908164121,0.6855351847300541,1.3806289603105681,0.9947311827956989,0.5207091078940344,0.0,0.9932975871313673,50,1161,1761,772029,no_split,wide,individual,1,0.46851634979248047
1,1.0,0.5269396235855656,0.38030189782136026,0.4166851445723396,0.4485226227775686,0.4770724804260049,0.5070311384865982,0.5370411462798546,0.574438097628127,0.6221424103383081,0.6974415835176712,1.4412410422050497,0.9918716577540106,0.5207091078940344,0.0,0.9932975871313673,50,1161,1761,772029,no_split,wide,individual,1,0.46851634979248047
0,0.0,0.4453576170885156,0.3157913301461658,0.34149990309488415,0.36492739525899465,0.3879726612414865,0.41336685069835677,0.4444498925288359,0.48019058415061583,0.5297483061284741,0.6145264266965981,1.3077429669898266,0.9871204188481676,0.45925431865919625,0.0,0.9780104712041885,50,1161,1768,772029,no_split,wide,individual,1,0.47191834449768066
1,1.0,0.4731510202298769,0.3323217721553434,0.36726494606957644,0.39634354218294054,0.42367644956135564,0.45198156320883565,0.48338262630994644,0.518560582976747,0.5639475918939835,0.6368855990795161,1.3007696626830647,0.9689005235602094,0.45925431865919625,0.0,0.9780104712041885,50,1161,1768,772029,no_split,wide,individual,1,0.47191834449768066
0,0.0,0.3803156989989227,0.29553098393742516,0.3130928371613628,0.33030794391277607,0.34592625351491857,0.3620928371613628,0.38214310931163104,0.4054015695776802,0.4369158658525338,0.4871781852795729,1.0953008068537724,0.9825531914893617,0.3849186245308376,0.0,0.9784574468085107,50,1161,1813,772029,no_split,wide,individual,1,0.46935415267944336
1,1.0,0.38952155006275246,0.2988940007729419,0.3181456967708554,0.3362773521960276,0.35464636007580863,0.372947755342903,0.39480738378099045,0.418140141485896,0.45061615402687094,0.49948580160895,1.1071609162660412,0.9743617021276596,0.3849186245308376,0.0,0.9784574468085107,50,1161,1813,772029,no_split,wide,individual,1,0.46935415267944336
0,0.0,0.39429871061556065,0.3041364202166093,0.3259550701449509,0.34443329921707505,0.3620441819188471,0.37978876243591697,0.39943612353364805,0.4231215793863906,0.4537392545203182,0.5029209993793472,1.1860072894384925,0.9718947368421053,0.39702388978395403,0.0,0.980262467191601,50,1161,1821,772029,no_split,wide,individual,1,0.47058987617492676
1,1.0,0.39973480099858627,0.30743331418074815,0.3295084415530799,0.3490836309971925,0.3670062226767485,0.38673142191517706,0.4075726828200994,0.4300990019659924,0.4614330982610911,0.5081064945687915,0.9612037675190372,0.988586387434555,0.39702388978395403,0.0,0.980262467191601,50,1161,1821,772029,no_split,wide,individual,1,0.47058987617492676
0,0.0,0.45039636519009163,0.3432245962193519,0.3688297828251216,0.3918333827443566,0.41297771721911264,0.4352680492178951,0.45797410519512005,0.486615438317944,0.5238991331146623,0.5764644731906582,1.0968940113746364,0.9946596858638743,0.4512181970938457,0.0,0.9948404255319149,50,1161,275,772029,no_split,wide,individual,1,0.47150111198425293
1,1.0,0.45206668300528907,0.34479563605107766,0.37000195659726764,0.39210819413307946,0.4141981301925538,0.4363280042998984,0.46056992395022045,0.48775048737553434,0.5217144206233975,0.5783114492024345,1.001355133666164,0.9950270270270271,0.4512181970938457,0.0,0.9948404255319149,50,1161,275,772029,no_split,wide,individual,1,0.47150111198425293
0,0.0,0.3789642405135908,0.29702705788981915,0.3130983735971726,0.32870134033139403,0.344018544701308,0.36001854470130795,0.3789369161867136,0.4005768240505974,0.4323002423241354,0.48570796012966494,0.9197017781792408,0.9913829787234043,0.39338038335460895,0.0,0.983289124668435,50,1161,3286,772029,no_split,wide,individual,1,0.4712820053100586
1,1.0,0.4077202503075793,0.3103729630608757,0.3337511631999648,0.3542901893655096,0.37331470911434605,0.3940000366137403,0.41528013640688377,0.44076359768348233,0.4719670424057815,0.5213250532974594,1.099196708329908,0.9752380952380952,0.39338038335460895,0.0,0.983289124668435,50,1161,3286,772029,no_split,wide,individual,1,0.4712820053100586
0,0.0,0.4571141426619147,0.34900397879054273,0.3746998207640171,0.3957095291612002,0.4171709117832792,0.4378498534860056,0.46100652357176053,0.4890219672090544,0.5286019858205514,0.589031769950547,1.242732161300316,0.9958730158730159,0.4666106148597062,0.0,0.993245382585752,50,1161,3292,772029,no_split,wide,individual,1,0.4758188724517822
1,1.0,0.4760571056248777,0.3642290255937487,0.39344132122531295,0.41712097408012977,0.43900339097939056,0.46220390929984,0.4868261908399004,0.5156607756207762,0.5486122028408438,0.6040075075484225,1.1060018904478697,0.9906315789473684,0.4666106148597062,0.0,0.993245382585752,50,1161,3292,772029,no_split,wide,individual,1,0.4758188724517822
0,0.0,0.45591164368066356,0.3628004868029621,0.3852563066580187,0.40463487788552643,0.423523705179327,0.44250292943576197,0.4625449151096526,0.4865980041566664,0.5182474119478893,0.5652572702756751,1.15188320439966,0.9970526315789474,0.45954341602491,0.0,0.996010498687664,50,1161,337788,772029,no_split,wide,individual,1,0.4514737129211426
1,1.0,0.46315617385426516,0.36685509396334365,0.3912563066580187,0.41254491510965263,0.4316248653546632,0.4525949461291917,0.4734845853453613,0.497139763842913,0.526725842491995,0.5715774415587698,1.1384413551062582,0.9949738219895288,0.45954341602491,0.0,0.996010498687664,50,1161,337788,772029,no_split,wide,individual,1,0.4514737129211426
0,0.0,0.41010135926923014,0.3214517170093236,0.3406960556266493,0.35724781523754384,0.373103546526999,0.3910211022681531,0.4111668622612068,0.43436360292345266,0.4679741186802813,0.5218714542814468,1.192871454281447,0.991764705882353,0.42350421563171653,0.0,0.9858064516129033,50,1161,3487,772029,no_split,wide,individual,1,0.44859886169433594
1,1.0,0.4370519677386622,0.33318782229463334,0.3595084576772949,0.38146094709819467,0.4014182014294066,0.42239390283657474,0.4453307002013406,0.47207087543086945,0.5040571115730154,0.5547221073419446,1.1279701544506282,0.9797837837837838,0.42350421563171653,0.0,0.9858064516129033,50,1161,3487,772029,no_split,wide,individual,1,0.44859886169433594
0,0.0,0.40681067906804663,0.32898614309252094,0.34681399301977955,0.3622298074870404,0.3777928006862937,0.39434689179146254,0.41274728477872846,0.4339068773794981,0.4603326158120208,0.5011741909976498,0.938511826549686,0.9970680628272252,0.41529083142683776,0.0,0.9958730158730159,50,1161,3580,772029,no_split,wide,individual,1,0.45050764083862305
1,1.0,0.42395237741897196,0.3392683338923954,0.36180815151911977,0.38076977443705445,0.39752345232359276,0.41434689179146256,0.4327787293252805,0.45309681597538937,0.4792966690313431,0.5217937606437696,0.8649068773794981,0.9946524064171123,0.41529083142683776,0.0,0.9958730158730159,50,1161,3580,772029,no_split,wide,individual,1,0.45050764083862305
0,0.0,0.47329043905887735,0.3455525337810419,0.371002921886935,0.3942110499872271,0.4181677942186292,0.4449052117302167,0.4735339549504614,0.510164104674982,0.5582957492163624,0.6394728975914418,1.4623411273643938,0.9885714285714285,0.48878837361051347,0.0,0.9799447513812155,50,1161,3625,772029,no_split,wide,individual,1,0.4446849822998047
1,1.0,0.5044585074349457,0.3621126962104843,0.3950333962008909,0.42447132686379707,0.45277571458629545,0.48242241767675065,0.5138968054445346,0.5494648265541434,0.5992632586527116,0.6732198804089401,1.3915412202960495,0.9712222222222222,0.48878837361051347,0.0,0.9799447513812155,50,1161,3625,772029,no_split,wide,individual,1,0.4446849822998047
0,0.0,0.5512067584048443,0.42643666201739233,0.4576138730594283,0.4835695844367485,0.5096263339323126,0.5359299932264068,0.5638352772907296,0.5948627781866742,0.6338982657736768,0.6934479628013006,1.271271331333319,0.9967539267015707,0.5550021747107905,0.0,0.9958005249343832,50,1161,3754,772029,no_split,wide,individual,1,0.4563148021697998
1,1.0,0.558817566892031,0.4358510479915471,0.4689529305593945,0.495536323768541,0.5205795864489873,0.5462897595722255,0.5728143909213441,0.6031540916287705,0.641384314175293,0.6964991061711759,1.1495053865334832,0.9948421052631579,0.5550021747107905,0.0,0.9958005249343832,50,1161,3754,772029,no_split,wide,individual,1,0.4563148021697998
0,0.0,0.420233770929028,0.3357061913090274,0.35350741069904046,0.3692041191514462,0.3863318010048264,0.4027562822500229,0.4213633109949026,0.44636331099490256,0.4773079419282295,0.5252345066354057,1.0604415769972166,0.984021164021164,0.4246354763359049,0.0,0.9839050131926121,50,1161,3910,772029,no_split,wide,individual,1,0.45006585121154785
1,1.0,0.42901401487221935,0.3386612450043861,0.35830814856979465,0.3776497226625514,0.39432591663583083,0.4132429091959547,0.4333936044538812,0.4573021684102278,0.48906468840715844,0.5386924043645159,0.9966651746485786,0.9837894736842105,0.4246354763359049,0.0,0.9839050131926121,50,1161,3910,772029,no_split,wide,individual,1,0.45006585121154785
0,0.0,0.4128724307512218,0.3340097566114576,0.35126662367232897,0.36650446785681706,0.38223726736988894,0.3976585811669804,0.4151654922369815,0.4360930724066231,0.4650134948366626,0.5107602069817251,1.042957218122002,0.9913684210526316,0.417571383674427,0.0,0.9877044854881266,50,1161,4222,772029,no_split,wide,individual,1,0.4521651268005371
1,1.0,0.4222951987824109,0.340154041377642,0.35921575687067264,0.3760097566114576,0.3929318340790726,0.4092516077026998,0.4278941803515106,0.4492219496767144,0.47667511765694204,0.5195848519197528,0.9437922775859761,0.984021164021164,0.417571383674427,0.0,0.9877044854881266,50,1161,4222,772029,no_split,wide,individual,1,0.4521651268005371
0,0.0,0.4584622511396766,0.3357898170960734,0.35830118468975314,0.37973487171529174,0.40169919612078314,0.42578338463962584,0.4555134954775839,0.4916837106735116,0.5413228709693014,0.62349869960379,1.36630124294101,0.9754497354497355,0.47036415590158137,0.0,0.9628571428571429,50,1161,4264,772029,no_split,wide,individual,1,0.44844698905944824
1,1.0,0.4822660606634862,0.3446387471563117,0.37440093402293323,0.3999854721465198,0.4274638273549038,0.45544908253919386,0.4864579696073695,0.5240811997696161,0.570423360548856,0.6524225822821365,1.4027898271150063,0.9502645502645503,0.47036415590158137,0.0,0.9628571428571429,50,1161,4264,772029,no_split,wide,individual,1,0.44844698905944824
0,0.0,0.4372827432746338,0.37090865989736316,0.38450256355687523,0.3971935817517071,0.4092065102228444,0.42358969698308824,0.4383626716377944,0.45636313968688474,0.48046357801576217,0.5208352917593678,0.9750028875353747,0.9865957446808511,0.442860787246265,0.0,0.9810133333333333,50,1161,5281,772029,no_split,wide,individual,1,0.4503664970397949
1,1.0,0.44846866033004407,0.37554560375739443,0.3924749085675095,0.40729008054464716,0.4214747290456934,0.43583466278051775,0.45101682743155946,0.47053401226280117,0.4962439760144514,0.5358005700997155,0.9752478922693265,0.9754010695187165,0.442860787246265,0.0,0.9810133333333333,50,1161,5281,772029,no_split,wide,individual,1,0.4503664970397949
0,0.0,0.4674862486984842,0.3627435205134652,0.38870563692868126,0.41100587195639254,0.4322547384345411,0.45349352783676966,0.47613879188970465,0.5018547133865296,0.5364715157150235,0.5897013938059528,1.0573459358207413,0.9969312169312169,0.4740389809736165,0.0,0.9966933333333333,50,1161,5332,772029,no_split,wide,individual,1,0.4558675289154053
1,1.0,0.4806974024789928,0.372218616754289,0.40055641362127176,0.42454337035801926,0.44548924653244687,0.4686695676555728,0.4921941592866311,0.5183536928021762,0.551338889799709,0.6052020620888018,0.9622293362469776,0.9964516129032258,0.4740389809736165,0.0,0.9966933333333333,50,1161,5332,772029,no_split,wide,individual,1,0.4558675289154053
0,0.0,0.4479903375293181,0.3450131567929573,0.3665966012126513,0.38646356442343555,0.4065844597832588,0.4294232654341732,0.4529113618250963,0.48041079402182424,0.5161161093974732,0.5761099942387271,1.0755996365699994,0.9934736842105263,0.4588170421536758,0.0,0.9907651715039578,50,1161,5575,772029,no_split,wide,individual,1,0.45275449752807617
1,1.0,0.46970103092948523,0.35601394042275974,0.38445876239079296,0.4090469131161524,0.430935061529938,0.45459963656999947,0.47963195115981944,0.5077316234248428,0.5434240270674732,0.6046171499874426,1.1241415247822137,0.988042328042328,0.4588170421536758,0.0,0.9907651715039578,50,1161,5575,772029,no_split,wide,individual,1,0.45275449752807617
0,0.0,0.44829669788218296,0.34738325516613694,0.36831404189891215,0.38658066414438735,0.4066958352782496,0.427592228968918,0.45083397328723623,0.4795247105256572,0.5165471879652191,0.5756684531443468,1.0810624156805917,0.9853551912568306,0.4533220931364802,0.0,0.9809703504043127,50,1161,5731,772029,no_split,wide,individual,1,0.4512467384338379
1,1.0,0.4582138342616738,0.3504953973986058,0.37476107314132784,0.39512639531388405,0.41677002748357067,0.4397391600383568,0.46355218668363507,0.49227032355695466,0.5280121703770807,0.5868129439879503,1.1095599356688208,0.9767021276595744,0.4533220931364802,0.0,0.9809703504043127,50,1161,5731,772029,no_split,wide,individual,1,0.4512467384338379
0,0.0,0.42991736705039685,0.3405070527133134,0.3620903692952039,0.38042320634804294,0.39842334667760226,0.4159754355960177,0.435656580955215,0.4588375380741214,0.4885932810209122,0.5371141991167201,0.9741139726625854,0.9971276595744681,0.44111750785969767,0.0,0.9951724137931034,50,1161,5761,772029,no_split,wide,individual,1,0.4498939514160156
1,1.0,0.45225838866471635,0.3546735532857855,0.38002208872080817,0.40191784839204264,0.4217945562538588,0.441497493829749,0.4626807859100643,0.4871324129950553,0.5175123979527145,0.5635179296350189,1.053181309979236,0.9932275132275132,0.44111750785969767,0.0,0.9951724137931034,50,1161,5761,772029,no_split,wide,individual,1,0.4498939514160156
0,0.0,0.4369430613540902,0.3175651610939362,0.3395631281449631,0.36011175378172544,0.38226737072125555,0.4075651610939362,0.4360575310191347,0.4694213168087651,0.5180126211940911,0.59541031089279,1.38313370742556,0.9520833333333333,0.4383978009374235,0.0,0.9496354166666666,50,1161,5803,772029,no_split,wide,individual,1,0.4520914554595947
1,1.0,0.43985254052075684,0.3191869297397711,0.3430018933367708,0.36617510255883523,0.3885908914984127,0.4121149763205533,0.44028842567858295,0.47556257633283083,0.519317261059204,0.592267246287445,1.2606167137425783,0.9471875,0.4383978009374235,0.0,0.9496354166666666,50,1161,5803,772029,no_split,wide,individual,1,0.4520914554595947
0,0.0,0.5006344711056377,0.3622900949307908,0.3944210588243015,0.4223037867610723,0.45054726169388243,0.4786595380234405,0.5074803525272856,0.5439690061919846,0.5941835469034522,0.666044587692646,1.3402166152275254,0.993125,0.510215666568116,0.0,0.991413612565445,50,1161,5815,772029,no_split,wide,individual,1,0.4536857604980469
1,1.0,0.5198977167196728,0.3755335388597339,0.40996213791173247,0.44010779631779706,0.46902343318827017,0.4996991726162362,0.5319951507771532,0.5689873925111583,0.6139980305837229,0.6902061955483467,1.3161835469034522,0.9896842105263158,0.510215666568116,0.0,0.991413612565445,50,1161,5815,772029,no_split,wide,individual,1,0.4536857604980469
0,0.0,0.42068520624982775,0.3434458291136756,0.361171408654568,0.3768839932612815,0.3917863731800205,0.40679707785257524,0.4249478399348825,0.44440510544285194,0.4710297954808439,0.5155446552901174,0.8567826515250943,0.996,0.43201141287750805,0.0,0.9925925925925926,50,1161,6055,772029,no_split,wide,individual,1,0.4569053649902344
1,1.0,0.4434581110650572,0.3558960304232758,0.3775765921779375,0.3959064841714647,0.4144607027615002,0.4322361892751194,0.4512132031007059,0.47355007663380255,0.5005354702226236,0.5447519599887587,0.9382081297860505,0.9891489361702127,0.43201141287750805,0.0,0.9925925925925926,50,1161,6055,772029,no_split,wide,individual,1,0.4569053649902344
0,0.0,0.46530535597769973,0.34366136262749336,0.36927229170106074,0.39304830324364876,0.4165126301237746,0.44234157291778814,0.46980427637287697,0.5019658251737915,0.5460824958094438,0.6176300178873471,1.464285428089468,0.9804324324324324,0.46885385999914747,0.0,0.98,50,1161,6109,772029,no_split,wide,individual,1,0.4553208351135254
1,1.0,0.47234573895642323,0.34882138681682406,0.3759461808982767,0.40004829081729837,0.42337954407340944,0.44862577351140287,0.47661938707200224,0.5094604168015343,0.5553333515651533,0.6281411456353104,1.2229470861361296,0.9795744680851064,0.46885385999914747,0.0,0.98,50,1161,6109,772029,no_split,wide,individual,1,0.4553208351135254
0,0.0,0.3949743120071214,0.32325820746129363,0.33851462993128467,0.35306116562103274,0.3663940018062958,0.3810087301489295,0.3985116769093321,0.4172903572844787,0.4424190095612371,0.48449499715095024,0.9331143204340691,0.9935078534031414,0.40834528462615277,0.0,0.9876762402088772,50,1161,6214,772029,no_split,wide,individual,1,0.45816493034362793
1,1.0,0.4216466167627933,0.3324415567658519,0.35523689075940257,0.3732845954551565,0.39104114817127444,0.41010724342552124,0.4292812783789731,0.4513045315974389,0.48104032558950416,0.5245208986485641,0.9360615799625212,0.981875,0.40834528462615277,0.0,0.9876762402088772,50,1161,6214,772029,no_split,wide,individual,1,0.45816493034362793
0,0.0,0.4568445973068577,0.3331208645432285,0.3615331495113157,0.38538786262655206,0.4111126202933595,0.4362634994246166,0.4645605191707198,0.498156241849076,0.5401299759456528,0.6046684975979552,1.2587033044664584,0.9900529100529101,0.46183962376188425,0.0,0.9889417989417989,50,1161,6253,772029,no_split,wide,individual,1,0.4565544128417969
1,1.0,0.4668346502169107,0.3408018150462896,0.37247950161707616,0.3983857494947722,0.4210063097025083,0.44585974318377675,0.47447950161707614,0.5056134946399935,0.5467303999522313,0.6168175270121956,1.368931530744846,0.9878306878306878,0.46183962376188425,0.0,0.9889417989417989,50,1161,6253,772029,no_split,wide,individual,1,0.4565544128417969
0,0.0,0.4604735232245963,0.3650515109527843,0.38754863403647427,0.40765582496161207,0.42654408003657934,0.44521449712056677,0.4677808830846621,0.4914117550412811,0.5243892118534066,0.5745440800365793,1.0044306285662006,0.9956842105263158,0.4640882642109204,0.0,0.9945406824146982,50,1161,6262,772029,no_split,wide,individual,1,0.46265268325805664
1,1.0,0.4676840798517663,0.3700362027807078,0.39447149905207096,0.4145599488532692,0.43523366270258274,0.4554044434538028,0.47532181792435446,0.5008606893726356,0.5319631899682554,0.5808097667453028,1.0056434124927598,0.9934031413612565,0.4640882642109204,0.0,0.9945406824146982,50,1161,6262,772029,no_split,wide,individual,1,0.46265268325805664
0,0.0,0.4921676877459389,0.37841130980902665,0.4055637771684715,0.42997061959944743,0.45332592196938076,0.4764251502535539,0.501545067803327,0.5336247839826875,0.5714138565175371,0.6253203937560221,1.0043849366820874,0.998421052631579,0.5047826877459388,0.0,0.9976842105263158,50,1161,6361,772029,no_split,wide,individual,1,0.46158361434936523
1,1.0,0.517397687745939,0.3995823487740821,0.4313828911137175,0.45837470884023845,0.4823128761678999,0.507512186210594,0.5334608098251257,0.5611610126130113,0.5943789219066213,0.6463136279267122,1.1301872002913587,0.9969473684210526,0.5047826877459388,0.0,0.9976842105263158,50,1161,6361,772029,no_split,wide,individual,1,0.46158361434936523
0,0.0,0.418119383454826,0.34463802393126064,0.3611503194674339,0.37608081966291595,0.38926269075359565,0.4041038614713184,0.4207088997040368,0.4402196474070823,0.4659539580792794,0.5103063000423995,0.9432913863179379,0.9929473684210526,0.4218941886207751,0.0,0.9911345646437995,50,1161,6427,772029,no_split,wide,individual,1,0.4620647430419922
1,1.0,0.42568896630082986,0.3492913863179379,0.3676623600002657,0.38316258770671036,0.3983374995086991,0.41352932937585035,0.4313643059884315,0.4507847249663295,0.47608540384725023,0.5184143810023341,0.8586380239312607,0.9893121693121694,0.4218941886207751,0.0,0.9911345646437995,50,1161,6427,772029,no_split,wide,individual,1,0.4620647430419922
0,0.0,0.46265086720006315,0.37034996547641075,0.3905918742976801,0.4087158041552246,0.42685503573206096,0.44592496436820617,0.46797445504739854,0.4928910972903139,0.5247104565318008,0.572783107504394,1.031639367663769,0.9877659574468085,0.46690317840573686,0.0,0.9861866666666667,50,1161,6583,772029,no_split,wide,individual,1,0.4677467346191406
1,1.0,0.4711782292435266,0.37585503573206097,0.3976673287304587,0.416663041340828,0.4366817515258531,0.45605352747864103,0.4773890348239348,0.5026807034379223,0.5337063012033942,0.5852898542901496,1.1143356866301042,0.9845989304812834,0.46690317840573686,0.0,0.9861866666666667,50,1161,6583,772029,no_split,wide,individual,1,0.4677467346191406
0,0.0,0.44781759407689453,0.34678279167705295,0.369871209719909,0.3896261481005641,0.40877779836896216,0.4295650406777717,0.4517707722249992,0.4797549467285958,0.5141581038379868,0.5694308485148736,1.0884770770053456,0.9902645502645503,0.4549053571417164,0.0,0.9866844919786096,50,1161,6634,772029,no_split,wide,individual,1,0.46507692337036133
1,1.0,0.4621463691376696,0.3537619531063262,0.37977911570077655,0.40180462144986445,0.4220860429404239,0.4446261481005641,0.4693195666437781,0.49647642760299016,0.5329301060359648,0.5934210859599491,1.0756455726658836,0.983027027027027,0.4549053571417164,0.0,0.9866844919786096,50,1161,6634,772029,no_split,wide,individual,1,0.46507692337036133
0,0.0,0.4613468557006139,0.37115654876238124,0.39189651503036915,0.40915194686810635,0.4265996696514914,0.44332121084842746,0.46341940294184125,0.4887635333123548,0.5222828303937133,0.5759506386315512,1.058205575918881,0.9930208333333334,0.468124422606619,0.0,0.9900783289817232,50,1161,6844,772029,no_split,wide,individual,1,0.4630303382873535
1,1.0,0.4749374741561112,0.3800855917382267,0.4029157309963923,0.4224185664879114,0.44155569123516974,0.46048238737583014,0.48172766000279454,0.5048240103754407,0.5378978538454054,0.5883909532585638,0.978973430449022,0.9871204188481676,0.468124422606619,0.0,0.9900783289817232,50,1161,6844,772029,no_split,wide,individual,1,0.4630303382873535
0,0.0,0.43706497599714567,0.3236989240943064,0.34937762010856166,0.37169869638786174,0.3947031962463667,0.41835237796683034,0.4433713140132171,0.473010586604904,0.5123173008124368,0.5753066118752872,1.1053968590667569,0.9977894736842106,0.461460941827953,0.0,0.9940314136125654,50,1161,7624,772029,no_split,wide,individual,1,0.4675285816192627
1,1.0,0.4856027830146895,0.3515211153672219,0.3893388538247875,0.4173571625643354,0.44523723974641793,0.47253069621503874,0.5023403103006153,0.5350163475993529,0.5737245124663216,0.6353794318697331,1.0835870370886638,0.9903125,0.461460941827953,0.0,0.9940314136125654,50,1161,7624,772029,no_split,wide,individual,1,0.4675285816192627
0,0.0,0.4161145962038979,0.32187319924822316,0.3418949740279672,0.3607969379681739,0.3797850682386838,0.3990033659931618,0.42091033218205987,0.4458583790018533,0.4795012427466052,0.5328321664031354,1.223824582923161,0.9917708333333334,0.4222535698077374,0.0,0.9905235602094241,50,1161,7756,772029,no_split,wide,individual,1,0.46775054931640625
1,1.0,0.42845716418635404,0.3280694294241139,0.3523423760685529,0.3728505988034029,0.39199704987752587,0.41167096861871255,0.43480669890059437,0.4614583489123521,0.49500351351589394,0.5500790507024106,1.0636465458155548,0.9892631578947368,0.4222535698077374,0.0,0.9905235602094241,50,1161,7756,772029,no_split,wide,individual,1,0.46775054931640625
0,0.0,0.42674916564038257,0.31762173477818406,0.3397112248968128,0.36063926389787687,0.3824989306792607,0.40467389932121134,0.4294576775770884,0.45923270861377136,0.5001954461378705,0.5645481892434907,1.3622988836656382,0.990531914893617,0.43557990347621617,0.0,0.984289544235925,50,1161,7768,772029,no_split,wide,individual,1,0.46617746353149414
1,1.0,0.44455384246614443,0.32861953378758246,0.3573281885874956,0.38119868897165704,0.4036772291139939,0.42597702385373815,0.45160778646967203,0.48252500073223653,0.519730747339434,0.5797340851280129,1.2345481892434906,0.977945945945946,0.43557990347621617,0.0,0.984289544235925,50,1161,7768,772029,no_split,wide,individual,1,0.46617746353149414
0,0.0,0.40865941195109384,0.30290186834873056,0.32432051490351754,0.3429770508258721,0.3643272557325117,0.38468498760256764,0.408419034989001,0.43776158939778653,0.47896710817089844,0.5467374126055988,1.035502040404835,0.9793717277486911,0.4162654328935022,0.0,0.97282722513089,50,1161,7807,772029,no_split,wide,individual,1,0.46644091606140137
1,1.0,0.4238714538359106,0.30731330751939057,0.3349545069616564,0.3579634462443822,0.3804784974072379,0.40412049589311855,0.4290633508067479,0.45954777220161885,0.4985285877377505,0.565018734453266,1.2899994444692366,0.966282722513089,0.4162654328935022,0.0,0.97282722513089,50,1161,7807,772029,no_split,wide,individual,1,0.46644091606140137
0,0.0,0.40406831122191933,0.3231961730943944,0.33905398399169684,0.35342020451553313,0.36832903615640045,0.3855898879989769,0.4042105006461065,0.42700370391013187,0.4577700730155114,0.5101426696391284,0.9999756645547724,0.9797916666666666,0.41036087191745735,0.0,0.9734383202099738,50,1161,7813,772029,no_split,wide,individual,1,0.46646976470947266
1,1.0,0.4167533145287976,0.32822221813070307,0.34722209706863577,0.3642505508931245,0.3812385080496248,0.40064821403803175,0.42061697950388227,0.4437447389391526,0.4747596728291208,0.5248783311693369,1.0869952503214846,0.966984126984127,0.41036087191745735,0.0,0.9734383202099738,50,1161,7813,772029,no_split,wide,individual,1,0.46646976470947266
0,0.0,0.4055995861213595,0.32377071727691004,0.34307372813268294,0.3604403353177354,0.3775077774773002,0.39429833647846485,0.4115701660107611,0.43316957858388994,0.459943182336232,0.501287205773478,1.0999370360296266,0.9987434554973822,0.4192866018281658,0.0,0.9969633507853403,50,1161,7828,772029,no_split,wide,individual,1,0.46671247482299805
1,1.0,0.4329736175349721,0.3415656073554688,0.36701873551660547,0.38751834715203415,0.4057424454947559,0.42546524131035135,0.4447673826034341,0.4669133595772201,0.49247684434917904,0.5319494421583421,0.890126111005955,0.9951832460732984,0.4192866018281658,0.0,0.9969633507853403,50,1161,7828,772029,no_split,wide,individual,1,0.46671247482299805
0,0.0,0.55980611161367,0.4065669009299211,0.4368069165857934,0.46269920605383497,0.49294463854470455,0.5233720780919221,0.560372078091922,0.6017716994830528,0.6618445788158417,0.7596617045375582,1.4602371641457061,0.9743915343915344,0.5668352000410032,0.0,0.968404255319149,50,1161,7840,772029,no_split,wide,individual,1,0.4649238586425781
1,1.0,0.5739394658846714,0.41523160382323165,0.4497201951497488,0.48123369765418805,0.5117228205652714,0.5428918615073746,0.5789975124256306,0.6213720780919221,0.6785754475381189,0.7707842721991855,1.4859451453761114,0.9623529411764706,0.5668352000410032,0.0,0.968404255319149,50,1161,7840,772029,no_split,wide,individual,1,0.4649238586425781
0,0.0,0.4607156419514726,0.3629652897080004,0.38853512473046375,0.4090729185309448,0.42757480569007345,0.4477812694238326,0.4692216388667648,0.4941032787180074,0.5269504863848462,0.5742155084400098,0.9050152320352031,0.9980104712041885,0.4707651707472841,0.0,0.9977486910994764,50,1161,7924,772029,no_split,wide,individual,1,0.46872711181640625
1,1.0,0.4808146995430956,0.37783396765342625,0.40712007831839647,0.42987530622108977,0.45020053619084666,0.4715393853373839,0.49295351252588493,0.5175305526831369,0.5476906300145651,0.5932135245750383,0.9957328796501077,0.9974869109947644,0.4707651707472841,0.0,0.9977486910994764,50,1161,7924,772029,no_split,wide,individual,1,0.46872711181640625
0,0.0,0.45387198568481124,0.35478106242661334,0.3794263449780253,0.4001588415152418,0.42022550717322443,0.4408811761983053,0.4626435015335047,0.4884770029841691,0.5206829710040114,0.569114699292988,0.9599297790373004,0.9992592592592593,0.4625832455615884,0.0,0.9986206896551724,50,1161,7939,772029,no_split,wide,individual,1,0.4705181121826172
1,1.0,0.47134084192707176,0.3649833669460366,0.39518485842204454,0.4201247809607113,0.4425528731084013,0.46314767905145987,0.48450668124151924,0.5095114495889799,0.5416829710040114,0.5857502767226634,0.9099572444536673,0.9979787234042553,0.4625832455615884,0.0,0.9986206896551724,50,1161,7939,772029,no_split,wide,individual,1,0.4705181121826172
0,0.0,0.4551182062535354,0.33493586362325045,0.3600432773913966,0.3819083981414781,0.4042708173713002,0.42812522792766505,0.45555687638541337,0.49091338346967095,0.5341436576625163,0.6085710056456523,1.3379004983258638,0.982808988764045,0.4629443142177537,0.0,0.9785123966942149,50,1161,8026,772029,no_split,wide,individual,1,0.4678356647491455
1,1.0,0.47047429917792044,0.3445503478177073,0.3732102996224528,0.39741133764375525,0.42129568145718893,0.4485478249357896,0.47742898586914284,0.5100548714710079,0.5543355758345528,0.6236975043933066,1.2089004983258638,0.9743783783783784,0.4629443142177537,0.0,0.9785123966942149,50,1161,8026,772029,no_split,wide,individual,1,0.4678356647491455
0,0.0,0.4737179836767542,0.3687272205431102,0.3903925390793337,0.4106485069797108,0.4292442360720113,0.4503424150631863,0.47439974832580073,0.5064779177512713,0.544344198564041,0.6078304798177232,1.2265981302007054,0.9816842105263158,0.4802853520978068,0.0,0.9765789473684211,50,1161,808,772029,no_split,wide,individual,1,0.46648693084716797
1,1.0,0.48685272051885947,0.37699384670585895,0.400258211353563,0.42305758037768865,0.4443271193338115,0.46664696990545096,0.49202123236344636,0.5218520428901116,0.5600890980512762,0.6186113882453115,1.3910218954453677,0.9714736842105263,0.4802853520978068,0.0,0.9765789473684211,50,1161,808,772029,no_split,wide,individual,1,0.46648693084716797
0,0.0,0.4545089419684986,0.32462993185499267,0.350910190376253,0.37489807001219283,0.39987292854308476,0.42718177158510007,0.45712201993190366,0.49240710852037417,0.5395735253125477,0.623129734429284,1.3063568147274465,0.9712041884816754,0.4572127096882093,0.0,0.9674151436031332,50,1161,8311,772029,no_split,wide,individual,1,0.4700298309326172
1,1.0,0.45990239528438,0.3252883634455528,0.35371547363835854,0.38034696018929315,0.40497260620253495,0.4316959511321435,0.46415764084220906,0.5010667951770159,0.5487018259641426,0.6261617932485589,1.2942883634455526,0.9636458333333333,0.4572127096882093,0.0,0.9674151436031332,50,1161,8311,772029,no_split,wide,individual,1,0.4700298309326172
0,0.0,0.46027263961397175,0.366153340922637,0.38440915477323667,0.4019406197755439,0.4194375562559872,0.43777895591656607,0.4595638266240257,0.4862263276918613,0.5221509909643999,0.5831342351975778,1.2750363155930555,0.9820833333333333,0.4672727702356649,0.0,0.9754497354497355,50,1161,833,772029,no_split,wide,individual,1,0.47057199478149414
1,1.0,0.47449871152257383,0.37182590675133165,0.39581773774043494,0.4160095552916196,0.43560745794203476,0.4570089913079658,0.4802038322366646,0.5071310450929802,0.5415405097589705,0.6000078633406581,1.083940069503706,0.9686021505376344,0.4672727702356649,0.0,0.9754497354497355,50,1161,833,772029,no_split,wide,individual,1,0.47057199478149414
0,0.0,0.5655131809452408,0.35940978223634346,0.39624974334088564,0.43225446342331947,0.46968052368356433,0.5117480397348532,0.5632308630111502,0.6276152390653151,0.7088645509047177,0.8444364509379263,1.4966506625808034,0.9626086956521739,0.5728715181955346,0.0,0.9548108108108108,50,1161,837,772029,no_split,wide,individual,1,0.4678313732147217
1,1.0,0.5801507335399113,0.3702693709525423,0.41333753338511586,0.4549854218915121,0.4938390122085716,0.5392758985250313,0.5876870145520652,0.6438715939064907,0.7231882460477416,0.8483676033760633,1.5006111938497788,0.9470967741935484,0.5728715181955346,0.0,0.9548108108108108,50,1161,837,772029,no_split,wide,individual,1,0.4678313732147217
0,0.0,0.39392327671821764,0.315416220694078,0.33354337822074054,0.34827172459958694,0.36303236700663527,0.378416405338235,0.39639724505525475,0.4175107238220776,0.44523701560793266,0.49221921151107945,0.8327296568805495,0.992565445026178,0.40163884491882385,0.0,0.9887894736842106,50,1161,8446,772029,no_split,wide,individual,1,0.46907544136047363
1,1.0,0.4094360593437751,0.3232266150681522,0.3444397543781633,0.36321269533883255,0.37937216402043084,0.3973786944195856,0.4161317398583284,0.43751072382207756,0.46697108377171404,0.5122113325695627,1.0018030184115543,0.984973544973545,0.40163884491882385,0.0,0.9887894736842106,50,1161,8446,772029,no_split,wide,individual,1,0.46907544136047363
0,0.0,0.4256868908810561,0.33604219155656523,0.3546814496660626,0.3718211973560204,0.38908734427883424,0.4078815358546848,0.4281807311922527,0.452559835237845,0.48442338714033184,0.5398809844908805,1.0065508333523479,0.9842328042328042,0.43187400925322766,0.0,0.981436170212766,50,1161,845,772029,no_split,wide,individual,1,0.4705688953399658
1,1.0,0.4381273000144065,0.3399336501417987,0.3622245533510162,0.3810608188129689,0.40072248305758645,0.4205812937786986,0.4419559999220633,0.46922722728820576,0.5049517540040134,0.5592379473414175,1.027339586628142,0.9786096256684492,0.43187400925322766,0.0,0.981436170212766,50,1161,845,772029,no_split,wide,individual,1,0.4705688953399658
0,0.0,0.47854662440619716,0.3573157423267005,0.382628454642671,0.4053361535018485,0.4278366491503599,0.45231917100744723,0.48043949845089745,0.5153157569210853,0.561185749308066,0.6331799878484848,1.4859981612808948,0.993193717277487,0.4907175814191484,0.0,0.9870526315789474,50,1161,8521,772029,no_split,wide,individual,1,0.4722306728363037
1,1.0,0.5030173316280039,0.37197739512383315,0.40487460518105883,0.4328823954947388,0.4579129802417991,0.48406146468369027,0.5129668026336219,0.5466112661344447,0.5887474663123112,0.6558498358264777,1.2523304603919496,0.9808465608465609,0.4907175814191484,0.0,0.9870526315789474,50,1161,8521,772029,no_split,wide,individual,1,0.4722306728363037
0,0.0,0.5543501305715914,0.4002916708913623,0.43486633274307146,0.4648704308967418,0.49731691281619966,0.5284701213849862,0.5638347184519886,0.6055870866098256,0.6590079931539029,0.7427884585238617,1.5109229159025332,0.9928260869565217,0.5605608294963226,0.0,0.9912365591397849,50,1161,8704,772029,no_split,wide,individual,1,0.46909666061401367
1,1.0,0.5666393858907404,0.413458634236831,0.4515045058358066,0.48365782686968906,0.5134764968084257,0.544486424017337,0.5789288412130248,0.617706128727136,0.667952508257887,0.7443593491565178,1.3980476833298217,0.9896808510638297,0.5605608294963226,0.0,0.9912365591397849,50,1161,8704,772029,no_split,wide,individual,1,0.46909666061401367
0,0.0,0.4540820020266109,0.33685569658557246,0.3679374179046345,0.39398415757143707,0.41838581072986836,0.4425721069211115,0.46824137127957577,0.4960116881437965,0.5311765173809533,0.5848748138071708,0.9490430089301621,0.9991304347826087,0.4613945383577604,0.0,0.999013698630137,50,1161,8755,772029,no_split,wide,individual,1,0.47188377380371094
1,1.0,0.4688282769485422,0.35220238708571083,0.3853430707793641,0.4118097044210058,0.4359058880047864,0.4600108951368883,0.4838556965855724,0.510852940282096,0.5460089355005004,0.5955254189564845,1.0103926462910755,0.9988950276243094,0.4613945383577604,0.0,0.999013698630137,50,1161,8755,772029,no_split,wide,individual,1,0.47188377380371094
0,0.0,0.45166180234749315,0.35171632959232224,0.37292287896917325,0.3925649902628733,0.4118776015246565,0.43097367778817136,0.4535649902628733,0.48103411980021166,0.5195649902628733,0.579860936185776,1.094030205713371,0.9861458333333334,0.4564169585974932,0.0,0.98421875,50,1161,8785,772029,no_split,wide,individual,1,0.4680356979370117
1,1.0,0.46117211484749315,0.3571224507228226,0.3799703607751291,0.3990856760295419,0.42001707420610995,0.4412271641094656,0.46558202897040213,0.49557923520800956,0.5319876356009771,0.590573455057811,1.151510227535815,0.9822916666666667,0.4564169585974932,0.0,0.98421875,50,1161,8785,772029,no_split,wide,individual,1,0.4680356979370117
0,0.0,0.41937308348574326,0.3153446398686064,0.3374966619608297,0.35829004203627646,0.3768672427867024,0.39774500450061734,0.42169143271111464,0.4502922358977521,0.4898358447368695,0.5513723422722271,1.4187124769431825,0.991005291005291,0.42924244196889483,0.0,0.9871618037135278,50,1161,8788,772029,no_split,wide,individual,1,0.4701874256134033
1,1.0,0.4391642970397228,0.3258363269320167,0.351580458040654,0.3758363269320167,0.3991026719214605,0.4233473773215745,0.4479855953234917,0.4776158233702904,0.5158243716893398,0.5738760597859424,1.1730197713835078,0.9832978723404255,0.42924244196889483,0.0,0.9871618037135278,50,1161,8788,772029,no_split,wide,individual,1,0.4701874256134033
0,0.0,0.47333698964414866,0.35817186968899173,0.3791002767283241,0.3985589305641381,0.4212344179766775,0.4427583565306602,0.46996973356458677,0.5047081785661691,0.5504164448443375,0.6286363203910866,1.4625589305641382,0.9625396825396826,0.4816767709680257,0.0,0.9505851063829788,50,1161,916,772029,no_split,wide,individual,1,0.4676520824432373
1,1.0,0.4901057478140833,0.36221875011823595,0.38870809048205124,0.4134297051042207,0.43861496052879967,0.4644110953015702,0.4935719058147468,0.5293997438761782,0.5736472059186185,0.6476689684964025,1.4297387341553511,0.9385026737967914,0.4816767709680257,0.0,0.9505851063829788,50,1161,916,772029,no_split,wide,individual,1,0.4676520824432373
0,0.0,0.4152361409749438,0.32521252546937807,0.34366289668385264,0.36035665217971125,0.37657021212501063,0.39467419090225875,0.4160314714047926,0.44132799309451387,0.4750614069429968,0.5312574025404099,1.1092559909914739,0.9822105263157894,0.42243813544931874,0.0,0.9767979002624672,50,1161,985,772029,no_split,wide,individual,1,0.4686429500579834
1,1.0,0.4296024231463409,0.33303028187898465,0.3536375205399703,0.37398117626235217,0.39281317673362054,0.41163522600677716,0.43378931775422597,0.45980244149008104,0.4924493255627015,0.5498881843911331,1.0029870174405136,0.971413612565445,0.42243813544931874,0.0,0.9767979002624672,50,1161,985,772029,no_split,wide,individual,1,0.4686429500579834
0,0.0,0.4455743212573268,0.3460985225084599,0.3664909862964842,0.38618844687789616,0.40458205061170327,0.4235170742206499,0.4449181214092076,0.47348024509663617,0.5101982545332376,0.5750983680169454,1.1350464171478596,0.9925853658536585,0.46458336721884175,0.0,0.9838693467336683,50,1161,275,772029,no_split,narrow,individual,1,0.47176051139831543
1,1.0,0.4847743227738187,0.3599092668384036,0.39133406548167393,0.417000950144884,0.4423204118325338,0.4680687272993622,0.49649460217506197,0.5289159077665065,0.5674291878557636,0.6294594666086151,1.1960051523901634,0.9746113989637306,0.46458336721884175,0.0,0.9838693467336683,50,1161,275,772029,no_split,narrow,individual,1,0.47176051139831543
0,0.0,0.4741172731905682,0.3747684824184959,0.3944761721590193,0.4123209286574165,0.43145905134229673,0.4517791129458563,0.47497219773283267,0.5025403756773269,0.5384212676729437,0.6019769919706744,1.2005244265170338,0.9861904761904762,0.48346024577354074,0.0,0.9797979797979798,50,1161,808,772029,no_split,narrow,individual,1,0.468980073928833
1,1.0,0.4940087632059291,0.3843619886292969,0.4107761209882872,0.4323017429337417,0.4536531360175825,0.4761082656409831,0.501407201672749,0.5282299057594919,0.5659990967422298,0.6263381440269403,1.1587523166635632,0.9725806451612903,0.48346024577354074,0.0,0.9797979797979798,50,1161,808,772029,no_split,narrow,individual,1,0.468980073928833
0,0.0,0.4592930384247296,0.3419413143187659,0.365158703752085,0.3867841006737682,0.40916280921067055,0.43260710550564374,0.458264393361694,0.49092676802073104,0.5358508064415437,0.6139841414885291,1.3757915903872135,0.9915,0.4787319784247296,0.0,0.9837866666666667,50,1161,833,772029,no_split,narrow,individual,1,0.4632103443145752
1,1.0,0.500947909853301,0.35920948689972465,0.39422366509952,0.4239019524238067,0.45204121939622355,0.4811729963340553,0.5112838964096351,0.5482158393341618,0.5950321442808035,0.666126199765961,1.2092264029712834,0.9749714285714286,0.4787319784247296,0.0,0.9837866666666667,50,1161,833,772029,no_split,narrow,individual,1,0.4632103443145752
0,0.0,0.592250393348555,0.3553537059630275,0.3981877452264766,0.4381362036246867,0.480252028045475,0.5307625949907457,0.5893177697141103,0.662655124384449,0.7593876172283295,0.9243765314175321,1.4917211805917898,0.9503664921465969,0.6007774444235244,0.0,0.9437765957446809,50,1161,837,772029,no_split,narrow,individual,1,0.46504783630371094
1,1.0,0.6095810485063305,0.36833113724475247,0.41833857529053636,0.46476466384108345,0.5117636294159146,0.558870554503426,0.6127679125189834,0.6788442327875075,0.7747798319892951,0.9302305346002853,1.4877681306225734,0.936972972972973,0.6007774444235244,0.0,0.9437765957446809,50,1161,837,772029,no_split,narrow,individual,1,0.46504783630371094
0,0.0,0.42584799182460376,0.33716974252063303,0.3554857373295906,0.371363308587485,0.38787970161598023,0.4057818165315134,0.42520683188071295,0.44997967438539455,0.4854563509708051,0.5388318852021091,1.0840058537154613,0.9861458333333334,0.43876169781836494,0.0,0.9783422459893049,50,1161,845,772029,no_split,narrow,individual,1,0.46161818504333496
1,1.0,0.4523849480974975,0.34765483171822803,0.3733575592181217,0.39561951808986123,0.41529559809704386,0.43583188520210914,0.45878204951973683,0.48648384360276475,0.5218101995003414,0.5757575849393043,1.0569748367084804,0.9701098901098901,0.43876169781836494,0.0,0.9783422459893049,50,1161,845,772029,no_split,narrow,individual,1,0.46161818504333496
0,0.0,0.47072014289630204,0.35098196991425745,0.3734588160207139,0.39538635940506345,0.41638635940506347,0.440380567038365,0.4680219258505746,0.5013863594050635,0.5514407847633993,0.6291939119615688,1.2853863594050636,0.9888268156424581,0.49063351774747893,0.0,0.9739890710382514,50,1161,916,772029,no_split,narrow,individual,1,0.4560396671295166
1,1.0,0.5096949835141134,0.37065065436288075,0.4039685347239086,0.43378648923465923,0.4623709677897264,0.4890123841795689,0.520458816020714,0.5542596207635442,0.6009616884083618,0.6683974741797875,1.4024117152221902,0.9597860962566845,0.49063351774747893,0.0,0.9739890710382514,50,1161,916,772029,no_split,narrow,individual,1,0.4560396671295166
0,0.0,0.40744183975871134,0.3211262421841574,0.3382309702637462,0.35453563000819266,0.3706735858145012,0.38699839890635274,0.4065263047710303,0.42951387112148043,0.46367007346474504,0.51869578450498,1.0536209788636208,0.991864406779661,0.4304162837438291,0.0,0.9781029810298103,50,1161,985,772029,no_split,narrow,individual,1,0.4595942497253418
1,1.0,0.45159584929260965,0.3386193924010236,0.3655972239272341,0.38976672800105694,0.41379732308819,0.4377738369310076,0.46170036647403717,0.4898888968604861,0.5256278620771077,0.582707674850116,1.1076994176274604,0.9654166666666667,0.4304162837438291,0.0,0.9781029810298103,50,1161,985,772029,no_split,narrow,individual,1,0.4595942497253418
0,0.0,0.4091261043768469,0.3227348697879991,0.3397334984437941,0.355373673158231,0.3712499122496373,0.3883916781152243,0.408179708421702,0.43175637922659305,0.46340776450677806,0.5213253561824525,1.2187729188475562,0.9946590909090909,0.43887981968785167,0.0,0.9768421052631578,50,1161,1108,772029,no_split,narrow,individual,1,0.4590327739715576
1,1.0,0.46454969172087535,0.3431871851282994,0.374294788036562,0.40050030282835347,0.42450782089614775,0.4489230608788856,0.4741908694056135,0.5051783390365866,0.5440523962436341,0.6048184787163292,1.2793172886772408,0.9614705882352941,0.43887981968785167,0.0,0.9768421052631578,50,1161,1108,772029,no_split,narrow,individual,1,0.4590327739715576
0,0.0,0.4405735401062953,0.3277593389911263,0.34968874744361683,0.37045307888103185,0.391095374980591,0.414242425425999,0.43971071952052293,0.4691023941880213,0.5142119457498662,0.5889789217081409,1.3495019392570682,0.9854271356783919,0.46117772071449603,0.0,0.9724324324324324,50,1161,1507,772029,no_split,narrow,individual,1,0.47078394889831543
1,1.0,0.48089037427714953,0.34342820394088414,0.3752030198251136,0.4030551835991259,0.43013024189773863,0.45777682575666967,0.48887948864610103,0.5240855995977779,0.5734955099157235,0.6475635931607072,1.4019991869349124,0.96,0.46117772071449603,0.0,0.9724324324324324,50,1161,1507,772029,no_split,narrow,individual,1,0.47078394889831543
0,0.0,0.4579439913748123,0.35337446130442,0.3772281198439738,0.39715292219421433,0.417797405107427,0.4390284522343477,0.46154100488967287,0.48950505979328174,0.5284376207956097,0.5874208473202056,1.2662537051013387,0.991505376344086,0.46321323080508875,0.0,0.9890575916230366,50,1161,1538,772029,no_split,narrow,individual,1,0.46377062797546387
1,1.0,0.46821363148892253,0.35859152388533133,0.384359821607333,0.4068314380262107,0.4286856662981406,0.4520034903520083,0.47637226238465036,0.5029371694453445,0.541114171760305,0.6015286959800806,1.2445656227088573,0.986734693877551,0.46321323080508875,0.0,0.9890575916230366,50,1161,1538,772029,no_split,narrow,individual,1,0.46377062797546387
0,0.0,0.4671767211183533,0.36727598743219975,0.38686697257482183,0.4027238372432684,0.4201271980081209,0.4400197356697065,0.46272583058118943,0.4923035693029322,0.5303719804445947,0.5998012066930485,1.2083890208518557,0.9959574468085106,0.49748899934181573,0.0,0.9815846994535519,50,1161,1582,772029,no_split,narrow,individual,1,0.4589724540710449
1,1.0,0.5295042145441243,0.39759230246136823,0.4329008755222818,0.46171653451825667,0.49046501624431893,0.516500771511071,0.5432236441377299,0.5753230625717765,0.6159103763794324,0.6737406507153642,1.1642762262331923,0.9664044943820225,0.49748899934181573,0.0,0.9815846994535519,50,1161,1582,772029,no_split,narrow,individual,1,0.4589724540710449
0,0.0,0.44495345760173205,0.3470111362585118,0.3632546992908855,0.37872874265802325,0.394571289199559,0.41275243547402785,0.43384483213243,0.46118341974198984,0.5035374867948172,0.5868964045454936,1.396546676133427,0.9887437185929648,0.47674104012588164,0.0,0.9532330827067669,50,1161,1583,772029,no_split,narrow,individual,1,0.46068668365478516
1,1.0,0.5083696847374104,0.37256706389896627,0.4090145460910147,0.43925469929088545,0.46595981743477777,0.4927589268403637,0.5209362030523408,0.5519398113521061,0.5934443731538456,0.6570440959314225,1.4713926801765498,0.9179,0.47674104012588164,0.0,0.9532330827067669,50,1161,1583,772029,no_split,narrow,individual,1,0.46068668365478516
0,0.0,0.5563649306035469,0.3926566817402356,0.4201869180006304,0.4489244898747331,0.4794109101641069,0.5118167475199329,0.5525403022375535,0.6000547729936391,0.6660583126702777,0.7818732863634383,1.490075141925927,0.9762841530054645,0.5715275751720931,0.0,0.9624175824175825,50,1161,1597,772029,no_split,narrow,individual,1,0.46179676055908203
1,1.0,0.5868577627745458,0.4122035011167635,0.45165417354195575,0.4869936392564381,0.521007672340466,0.5550064713194777,0.5928047715798533,0.6402315451204768,0.7002752079622242,0.7986581556750486,1.4964131902950557,0.9483977900552486,0.5715275751720931,0.0,0.9624175824175825,50,1161,1597,772029,no_split,narrow,individual,1,0.46179676055908203
0,0.0,0.41731889710531145,0.32775163891188874,0.3460782833535437,0.3625022019332548,0.3796450416901647,0.3972093273998757,0.4175114661242916,0.44219810334715487,0.47528608342951634,0.533278845635654,1.278700798765755,0.9953005464480874,0.44124239612170496,0.0,0.9852266666666667,50,1161,1601,772029,no_split,narrow,individual,1,0.4677879810333252
1,1.0,0.46404448112170493,0.34552083888563984,0.3760874847337701,0.4015090338306588,0.42455813074471527,0.4501573789700046,0.4756475122607827,0.5047194942283015,0.5401542700438838,0.5999737100879683,1.0774808207803395,0.975625,0.44124239612170496,0.0,0.9852266666666667,50,1161,1601,772029,no_split,narrow,individual,1,0.4677879810333252
0,0.0,0.4830683052597454,0.35354486051676476,0.3769253415426364,0.3982667617707128,0.42086000207757623,0.44641832789042923,0.4762965884329111,0.513377111043917,0.5659676497474059,0.6616433793826411,1.4257928228472154,0.9881188118811881,0.5090688141493441,0.0,0.9715053763440861,50,1161,1614,772029,no_split,narrow,individual,1,0.4617176055908203
1,1.0,0.5399635364769848,0.37583936621388403,0.4181188923878164,0.4532385349458891,0.4847917891624345,0.5179669901357887,0.5517416070549209,0.5949080652232837,0.6458020337662497,0.7288479628765471,1.3862681198686868,0.951764705882353,0.5090688141493441,0.0,0.9715053763440861,50,1161,1614,772029,no_split,narrow,individual,1,0.4617176055908203
0,0.0,0.4650654798880465,0.3458292098799874,0.3752165391169014,0.4013248240847816,0.4244578317788073,0.4491178973911175,0.4743241991835488,0.5055491020928587,0.5457609524263104,0.6016424855700344,1.0598651330284772,0.9992265193370166,0.48520661074003835,0.0,0.9981052631578947,50,1161,1638,772029,no_split,narrow,individual,1,0.4714021682739258
1,1.0,0.5035259307611968,0.3701715703965095,0.4077463196816545,0.4387292342839073,0.4660311032684161,0.49397491907159724,0.5213745974042185,0.5516015430234357,0.5913437922097448,0.6462848618210563,1.1250687065819853,0.9970854271356784,0.48520661074003835,0.0,0.9981052631578947,50,1161,1638,772029,no_split,narrow,individual,1,0.4714021682739258
0,0.0,0.39825193548628124,0.3080452067107228,0.3256260480656922,0.34063119725978847,0.3568792578876946,0.3742410556865881,0.3943482065841429,0.41944125465213833,0.4548804366541818,0.5187180635063592,1.20438681571008,0.9893877551020408,0.4216339801532046,0.0,0.9675471698113207,50,1161,1657,772029,no_split,narrow,individual,1,0.4690382480621338
1,1.0,0.4478218701801588,0.32376145372634174,0.3528817646812701,0.37885119903999975,0.40520101975869893,0.4304403920586835,0.4578345008489991,0.4902213472820945,0.5296291355085911,0.5925465811386866,1.0744146305058948,0.9430857142857143,0.4216339801532046,0.0,0.9675471698113207,50,1161,1657,772029,no_split,narrow,individual,1,0.4690382480621338
0,0.0,0.46416026936661486,0.3709054948058101,0.3897108433524548,0.407612752010251,0.42623833323859994,0.44502037654618065,0.4668648578364364,0.49269079030612034,0.5267927626436616,0.5813695683514354,1.0510952993650362,0.9967179487179487,0.48361710706022404,0.0,0.9897969543147208,50,1161,1663,772029,no_split,narrow,individual,1,0.4643120765686035
1,1.0,0.5026828525388864,0.3916493389297319,0.42267756263990547,0.4460597211172918,0.4694781691403166,0.4911494420897181,0.5147335576343725,0.5426642771235191,0.5749435620081901,0.6226250959054834,1.0614789239329279,0.9830150753768844,0.48361710706022404,0.0,0.9897969543147208,50,1161,1663,772029,no_split,narrow,individual,1,0.4643120765686035
0,0.0,0.49910631054129634,0.36837752039115834,0.39643498578130815,0.4209881248266893,0.4453358813854151,0.47423398687231716,0.5028901811852713,0.5394553880131384,0.5879319298396583,0.663425321503865,1.4944366776677698,0.9919337016574585,0.5101996254584232,0.0,0.989060773480663,50,1161,1761,772029,no_split,narrow,individual,1,0.4692707061767578
1,1.0,0.5212929403755504,0.3758371467438739,0.4122945087955312,0.44201775010002137,0.47118752854006873,0.49932931551868365,0.5311045627175769,0.5708844265500276,0.6184533559798896,0.6930473832387918,1.488141984307687,0.9861878453038674,0.5101996254584232,0.0,0.989060773480663,50,1161,1761,772029,no_split,narrow,individual,1,0.4692707061767578
0,0.0,0.45754250005218816,0.33839278726563204,0.3611405113260805,0.38271642264890166,0.4056441743441102,0.42993122985889104,0.45610463095189385,0.48768281606416874,0.5336591248693096,0.6150464269701235,1.378081185960598,0.9847826086956522,0.47269585081599536,0.0,0.973945945945946,50,1161,1768,772029,no_split,narrow,individual,1,0.4690437316894531
1,1.0,0.48768626232427786,0.346884263352767,0.3795319668938662,0.4084891641938813,0.43731739040912776,0.46562303676249717,0.4967377710141967,0.5349184847875501,0.5812101280173936,0.650905550158656,1.4911122158131775,0.9632258064516129,0.47269585081599536,0.0,0.973945945945946,50,1161,1768,772029,no_split,narrow,individual,1,0.4690437316894531
0,0.0,0.38215765961967385,0.29612767485794383,0.31290855664203443,0.32818625329625356,0.34427901826546287,0.3616237775830292,0.3806177070918177,0.40336614134229526,0.43697362620593827,0.4944017918896982,0.9958346892178362,0.988268156424581,0.4001144645071951,0.0,0.9764705882352941,50,1161,1813,772029,no_split,narrow,individual,1,0.4689953327178955
1,1.0,0.41659789053215057,0.3070201573692884,0.3323960786783397,0.3548671242919434,0.37712051291308374,0.39937448404679327,0.42334572368030116,0.4528621167424048,0.4908564588593409,0.5497378679557999,0.9614241819051319,0.9656410256410256,0.4001144645071951,0.0,0.9764705882352941,50,1161,1813,772029,no_split,narrow,individual,1,0.4689953327178955
0,0.0,0.41071295167183924,0.3145247481067799,0.3323227759790891,0.34840563644085776,0.3661173180894951,0.3851914560916437,0.40693023040029397,0.4340541238679468,0.47426579922369,0.5406696753056314,1.1769155701039125,0.9892682926829268,0.4280446019978474,0.0,0.9761881188118812,50,1161,1821,772029,no_split,narrow,individual,1,0.4670674800872803
1,1.0,0.4458988146452429,0.3279261496045329,0.3564703451301333,0.3823855726529124,0.4061815792653809,0.4298213974094614,0.4560108434065388,0.4854753973794564,0.5235216735085738,0.5832739303727739,1.1614264551177111,0.9627135678391959,0.4280446019978474,0.0,0.9761881188118812,50,1161,1821,772029,no_split,narrow,individual,1,0.4670674800872803
0,0.0,0.40189395301786823,0.3185683649444108,0.335361069701915,0.35097030630852344,0.36733501323084994,0.38398359654525976,0.4033480414663824,0.4264939581326195,0.45665716686996577,0.50833501323085,1.107985083332715,0.9900552486187846,0.412129545471142,0.0,0.9853191489361702,50,1161,3286,772029,no_split,narrow,individual,1,0.4681053161621094
1,1.0,0.42163027487648846,0.3270883479045523,0.3495523986823958,0.3690976677463822,0.3886591397680301,0.40820160156584706,0.42857629176622036,0.45203984856439333,0.4835845636945502,0.5339023896925148,1.1101494574131696,0.9809230769230769,0.412129545471142,0.0,0.9853191489361702,50,1161,3286,772029,no_split,narrow,individual,1,0.4681053161621094
0,0.0,0.48337924892260853,0.3576370371274801,0.38677150463682686,0.4108070281013543,0.4349542804511734,0.46033203653082544,0.4872996108501755,0.5210528090470923,0.5663488073103747,0.6394259971715747,1.3508241688432945,0.9951136363636364,0.5032155001713599,0.0,0.9901098901098901,50,1161,3292,772029,no_split,narrow,individual,1,0.46324658393859863
1,1.0,0.5217856077233822,0.379331772312986,0.4150058374994784,0.4461099775099162,0.47463703712748007,0.502692508406618,0.5337758945428053,0.570331974394092,0.6156481313833078,0.6868288581303532,1.3396925084066178,0.9854255319148936,0.5032155001713599,0.0,0.9901098901098901,50,1161,3292,772029,no_split,narrow,individual,1,0.46324658393859863
0,0.0,0.3978960254999591,0.3087454507930413,0.32816854056077616,0.34462416716630206,0.3603217180775474,0.3781195742802976,0.3978246206850544,0.4222297782619453,0.45504649180044726,0.5131431516357949,1.3393520207201328,0.9966844919786096,0.4284915579674915,0.0,0.9866493506493507,50,1161,3487,772029,no_split,narrow,individual,1,0.4659547805786133
1,1.0,0.4573873386312723,0.3349897984345358,0.36876724728130333,0.3957672857517877,0.42067083695585655,0.44539599814350167,0.4717672857517877,0.5024042283277119,0.5383826784581855,0.5921815556309288,1.0159562640681574,0.9771717171717171,0.4284915579674915,0.0,0.9866493506493507,50,1161,3487,772029,no_split,narrow,individual,1,0.4659547805786133
0,0.0,0.4103858413653333,0.3433248276232083,0.3560093295560873,0.36902476447490656,0.38128949732871903,0.3942874371814101,0.4090061097471755,0.42701093946054314,0.4520757790709282,0.497245569023413,1.0603624829896257,0.9912437810945274,0.42683672905884545,0.0,0.9781218274111675,50,1161,3580,772029,no_split,narrow,individual,1,0.4666476249694824
1,1.0,0.4439695188329176,0.355438143662884,0.3768160446638988,0.3962473222435317,0.41327844035511263,0.43188468074893427,0.45132483571575427,0.47327780124558755,0.5024816065368207,0.548012914462595,0.9192853770341012,0.9644559585492228,0.42683672905884545,0.0,0.9781218274111675,50,1161,3580,772029,no_split,narrow,individual,1,0.4666476249694824
0,0.0,0.49558694152607075,0.35630518004045,0.3813109289919238,0.4044771405883409,0.4298890895699206,0.4570013161295774,0.48818452083164865,0.5309117818553359,0.5879296887101843,0.685467503416107,1.444965538192246,0.9572043010752688,0.5078694912795311,0.0,0.9431491712707182,50,1161,3625,772029,no_split,narrow,individual,1,0.46207189559936523
1,1.0,0.5208499131780746,0.36486481345552757,0.3979117818553358,0.42689667940864723,0.4564771405883409,0.48792896227192206,0.522969845409439,0.5636460915341275,0.6245902685948596,0.7194644837455629,1.446477140588341,0.9282954545454546,0.5078694912795311,0.0,0.9431491712707182,50,1161,3625,772029,no_split,narrow,individual,1,0.46207189559936523
0,0.0,0.5121763301584159,0.38024138777896627,0.41109476967478303,0.43631410154782985,0.4636035478147288,0.49187312796602006,0.5222891468255079,0.5578772591475996,0.6018883638388911,0.6681321785959897,1.209960942319685,0.9992134831460674,0.5379588711894442,0.0,0.9962059620596206,50,1161,3754,772029,no_split,narrow,individual,1,0.4593081474304199
1,1.0,0.5619865795848528,0.41613309332314363,0.4568069259070523,0.489937504712344,0.5205070767025138,0.5508524401939248,0.5813580099451754,0.6142897755472646,0.6533195379701007,0.7210204988905435,1.2493818386756308,0.9934031413612565,0.5379588711894442,0.0,0.9962059620596206,50,1161,3754,772029,no_split,narrow,individual,1,0.4593081474304199
0,0.0,0.41569830829733584,0.3310483042711155,0.35045684915392195,0.36744349433987894,0.3834643225864314,0.4011197637438183,0.420264283216574,0.44358816849538424,0.4732671794644229,0.5180371070969492,0.8874154528968833,0.9975531914893617,0.4303887558775365,0.0,0.9949740932642487,50,1161,3910,772029,no_split,narrow,individual,1,0.4590940475463867
1,1.0,0.4443372616607573,0.3473612455467464,0.3733997452988431,0.39448019138676993,0.4135845080142243,0.43329595810273736,0.4544702863029076,0.4784924383036209,0.5079407928845723,0.553761383212248,0.9397863272247561,0.9925252525252525,0.4303887558775365,0.0,0.9949740932642487,50,1161,3910,772029,no_split,narrow,individual,1,0.4590940475463867
0,0.0,0.4084480016055973,0.33980101265271717,0.3537843778684699,0.3666011723460652,0.37947070604425703,0.3930566324666084,0.409402609953222,0.42939220748750756,0.45570106282732675,0.49635015213032074,0.9723717522852935,0.9940331491712707,0.4220506247518608,0.0,0.9872631578947368,50,1161,4222,772029,no_split,narrow,individual,1,0.46286725997924805
1,1.0,0.4344228598748441,0.3539359655840564,0.37349874443619674,0.39122526184040735,0.4074034047906732,0.4237843778684699,0.44053928908168044,0.4605124228753493,0.48778683511291165,0.5280089328586812,0.9363112276975687,0.9811055276381909,0.4220506247518608,0.0,0.9872631578947368,50,1161,4222,772029,no_split,narrow,individual,1,0.46286725997924805
0,0.0,0.4800612629560938,0.32556793268222567,0.3519581076217323,0.37656687732027094,0.4037262217924491,0.43432431269995914,0.4711813778592575,0.5177629736866038,0.5821764769863462,0.6923343810088035,1.481927107956309,0.9723232323232324,0.5013545812778505,0.0,0.949823677581864,50,1161,4264,772029,no_split,narrow,individual,1,0.4607994556427002
1,1.0,0.5225408980000003,0.33772559702066857,0.37960959277191697,0.41595033452015806,0.45295857440306697,0.48961319330072917,0.5305919366152326,0.5782893508262079,0.64045558387405,0.7459192884842981,1.4645644148090433,0.9274371859296482,0.5013545812778505,0.0,0.949823677581864,50,1161,4264,772029,no_split,narrow,individual,1,0.4607994556427002
0,0.0,0.4279162510611616,0.3436772003462838,0.3622621438207983,0.37854229990339205,0.3947626652863362,0.411475148516364,0.43054229990339205,0.45275947424966306,0.48199296664436175,0.5346994920978707,1.086639679787358,0.9972486772486773,0.4470470104929536,0.0,0.9932608695652174,50,1161,5281,772029,no_split,narrow,individual,1,0.46807241439819336
1,1.0,0.4672465274349017,0.36163946486155946,0.3907669200019004,0.4138212271557258,0.4346897982800794,0.4557923180464414,0.4795696622406238,0.5037700326209044,0.5352953352936693,0.5854455007182562,1.0516396797873582,0.989050279329609,0.4470470104929536,0.0,0.9932608695652174,50,1161,5281,772029,no_split,narrow,individual,1,0.46807241439819336
0,0.0,0.4564365134943635,0.3570041801989303,0.3789854116822502,0.39816235343211565,0.4176990094880038,0.43813548322765994,0.4600500394165339,0.4872742798235142,0.522092096314468,0.5782988379624369,1.0951309268525973,0.9984782608695653,0.4792961139643987,0.0,0.9930810810810811,50,1161,5332,772029,no_split,narrow,individual,1,0.4637172222137451
1,1.0,0.5019099122788422,0.38448411981497804,0.41889227476112184,0.44412934369679063,0.4671571447494453,0.4906849261953051,0.5155616310246809,0.5441425783803893,0.5791188618499872,0.6329159480211972,1.0691425783803894,0.987741935483871,0.4792961139643987,0.0,0.9930810810810811,50,1161,5332,772029,no_split,narrow,individual,1,0.4637172222137451
0,0.0,0.44635351201672857,0.3328351181718723,0.35865111246754927,0.3806511124675493,0.4031261228222752,0.42600902959043385,0.4519769214159772,0.48089706911231517,0.5214788972697066,0.5836479478256827,1.2455033460820313,0.9989847715736041,0.4706319123811696,0.0,0.9952307692307693,50,1161,5575,772029,no_split,narrow,individual,1,0.4585418701171875
1,1.0,0.4954134920277751,0.3642743839573845,0.40155651942488874,0.43089541739652304,0.45750893781297997,0.4846091282381092,0.5108982115618123,0.5414025345466605,0.5806569754151056,0.6410126408122558,1.0572746631715997,0.9913989637305699,0.4706319123811696,0.0,0.9952307692307693,50,1161,5575,772029,no_split,narrow,individual,1,0.4585418701171875
0,0.0,0.4477168842208227,0.31961617130392916,0.34609604804376104,0.3699673616634783,0.39253334095983594,0.41842514061029795,0.4498836598670864,0.4856159087235865,0.5330590533809274,0.6117816122746746,1.416417682753303,0.9963730569948187,0.4709509224993465,0.0,0.9875510204081632,50,1161,5731,772029,no_split,narrow,individual,1,0.46659421920776367
1,1.0,0.4934844370106787,0.34610166251160024,0.38624740134166624,0.4191965064768152,0.447452267148992,0.4770234318324178,0.5086903517565239,0.5443517283727873,0.5880431591510136,0.6594338238944654,1.2367961824033777,0.9789949748743718,0.4709509224993465,0.0,0.9875510204081632,50,1161,5731,772029,no_split,narrow,individual,1,0.46659421920776367
0,0.0,0.434845976484339,0.35386350888891344,0.3707387718863531,0.3867340128837483,0.40172816040254716,0.4171469192850285,0.43552936245281365,0.45830349332402476,0.48786945897442474,0.534860923870715,1.107141663830836,0.9986956521739131,0.4648052369392614,0.0,0.9893732970027248,50,1161,5761,772029,no_split,narrow,individual,1,0.469951868057251
1,1.0,0.49492820919994845,0.3828635088889134,0.41542927513952227,0.44067876125166483,0.4627375821357019,0.4841795296915923,0.5073426498951342,0.5329929452292622,0.5657380097397726,0.617764486009894,1.0705555565544131,0.98,0.4648052369392614,0.0,0.9893732970027248,50,1161,5761,772029,no_split,narrow,individual,1,0.469951868057251
0,0.0,0.45045827736271443,0.3274338981427493,0.34899712181016035,0.3698287248631559,0.39203323807918133,0.4174164849782286,0.4451110864968104,0.48407041349843105,0.5363718189461606,0.6195110574034319,1.2679211373682528,0.9535714285714286,0.45449865289504116,0.0,0.9438482384823849,50,1161,5803,772029,no_split,narrow,individual,1,0.46659183502197266
1,1.0,0.45787568319071725,0.3322606886613274,0.35800131307263416,0.3797126296727295,0.4034584119829728,0.4296288986535068,0.45789480467134036,0.4916588572483827,0.5384385423448368,0.6203634850405353,1.361628898653507,0.9357213930348258,0.45449865289504116,0.0,0.9438482384823849,50,1161,5803,772029,no_split,narrow,individual,1,0.46659183502197266
0,0.0,0.5014456618721005,0.3567087795722339,0.38356587411561244,0.4077817508953959,0.4314721829722172,0.46058065627713757,0.49395763436125,0.5383042010239739,0.5962984976871033,0.694989200003025,1.4454704640146079,0.9858706467661692,0.5296444655282385,0.0,0.9646511627906976,50,1161,5815,772029,no_split,narrow,individual,1,0.47934961318969727
1,1.0,0.5601173662534198,0.3820276451467881,0.42613812119853234,0.464769326639756,0.5003944387256897,0.531764509834675,0.5698494193982587,0.6162025352120846,0.6769847463219106,0.7687858187828701,1.5062166197243905,0.9417204301075269,0.5296444655282385,0.0,0.9646511627906976,50,1161,5815,772029,no_split,narrow,individual,1,0.47934961318969727
0,0.0,0.42045514243594967,0.3443513767385185,0.36173127667992017,0.3754962053360315,0.3896998269315347,0.4050285476088409,0.4217980535768007,0.44323620099423733,0.47073682252463267,0.5130443727350503,0.9970527453051119,0.9973033707865169,0.44783011687185575,0.0,0.9880108991825614,50,1161,6055,772029,no_split,narrow,individual,1,0.4812488555908203
1,1.0,0.4736118388273652,0.3685892982982163,0.396229294821281,0.4195510375079087,0.4412223886483246,0.4630285476088409,0.4855929892531584,0.5115858864098742,0.5438541555685821,0.5929108377768046,1.040028547608841,0.9792592592592593,0.44783011687185575,0.0,0.9880108991825614,50,1161,6055,772029,no_split,narrow,individual,1,0.4812488555908203
0,0.0,0.4777811820178871,0.34491151532275266,0.3689147126527728,0.3902748873813776,0.41492127474622287,0.4412735691992442,0.4712624085192156,0.5074904044584447,0.5667117799266848,0.660457476143244,1.401320133805223,0.9728571428571429,0.4905598777912784,0.0,0.9591803278688524,50,1161,6109,772029,no_split,narrow,individual,1,0.47744321823120117
1,1.0,0.505292962330012,0.35376540015609764,0.3864425947558102,0.4156430195981678,0.44458392152169335,0.47592925055528446,0.5097105415589754,0.5512870284096849,0.6061097669201863,0.6914335972222803,1.3548612086201792,0.9434117647058824,0.4905598777912784,0.0,0.9591803278688524,50,1161,6109,772029,no_split,narrow,individual,1,0.47744321823120117
0,0.0,0.39897501382733636,0.32300598306130957,0.33703446225494965,0.35029619380633703,0.3630423277108522,0.3770344695444192,0.39388947587367124,0.4153006594654738,0.445581020199199,0.5003569580789818,1.1660125596687463,0.9933962264150943,0.4302552536354899,0.0,0.9647482014388489,50,1161,6214,772029,no_split,narrow,individual,1,0.4830305576324463
1,1.0,0.46260359919319,0.34521207561261763,0.37673352773067187,0.4034471205589824,0.42782492864333427,0.4499006905170364,0.47467611084900774,0.502382683859858,0.5378902910696752,0.5919216510328521,1.1978894758736713,0.9351219512195122,0.4302552536354899,0.0,0.9647482014388489,50,1161,6214,772029,no_split,narrow,individual,1,0.4830305576324463
0,0.0,0.46851278646568195,0.33992252027304365,0.3652702039048238,0.3896752411255212,0.41271128116035316,0.43982006797379514,0.46899108243818094,0.5042490477307013,0.5540149994126451,0.6368969889958195,1.365675241125521,0.9775531914893617,0.47369166563493526,0.0,0.976816976127321,50,1161,6253,772029,no_split,narrow,individual,1,0.4785017967224121
1,1.0,0.4788431433271026,0.34675067352864175,0.3761476026891771,0.40133664054181634,0.4268886518783417,0.4539799177931833,0.4845813300161959,0.5188050476381115,0.5662331513132317,0.6388843801755151,1.3223509700199154,0.9760846560846561,0.47369166563493526,0.0,0.976816976127321,50,1161,6253,772029,no_split,narrow,individual,1,0.4785017967224121
0,0.0,0.4664130655109847,0.3576823434418907,0.38120776611655355,0.4016767686655017,0.42321746744865746,0.44533660270133624,0.4701533711352504,0.49942855974539546,0.5393797735808646,0.600539901344901,1.1835891181168632,0.9954696132596685,0.48229531028638706,0.0,0.991195652173913,50,1161,6262,772029,no_split,narrow,individual,1,0.4767770767211914
1,1.0,0.4976679643203326,0.3718136629132581,0.4020817196653271,0.4299917260300313,0.45532098740902327,0.48049231729332476,0.5100419274059427,0.5409331077408335,0.5807245065985625,0.6455308080857525,1.4196851308300853,0.9870588235294118,0.48229531028638706,0.0,0.991195652173913,50,1161,6262,772029,no_split,narrow,individual,1,0.4767770767211914
0,0.0,0.5003827607214034,0.3942352366793113,0.418734214199915,0.4399265961830813,0.460115325134448,0.4820538056508496,0.5064981049314734,0.5338159948869537,0.5696807196566225,0.6302465701937674,1.1830011526047883,0.9967914438502674,0.5172537732766231,0.0,0.9923913043478261,50,1161,6361,772029,no_split,narrow,individual,1,0.467454195022583
1,1.0,0.5346840459165463,0.41452757967825987,0.4459840777397073,0.4725445112660656,0.49654328247555196,0.5210249329655181,0.5472352366793114,0.5758691164569985,0.6132576524799744,0.6696886141811501,1.1179265961830813,0.9878453038674033,0.5172537732766231,0.0,0.9923913043478261,50,1161,6361,772029,no_split,narrow,individual,1,0.467454195022583
0,0.0,0.41963155991298473,0.32201310909982356,0.34450560779625994,0.3647291417383441,0.38419293247271485,0.40481028905346106,0.4262210524614734,0.4518334959037542,0.48498783924828737,0.539383191705801,0.9961636461106641,0.9968306010928962,0.4291719461655013,0.0,0.9952105263157894,50,1161,6427,772029,no_split,narrow,individual,1,0.46889567375183105
1,1.0,0.4380343354254532,0.33470500929300373,0.3613800689715674,0.38342604934979924,0.4050362933417729,0.42598403760178905,0.44883244837725234,0.4739945201226694,0.5069865534181748,0.5544732305237234,0.9896690775400462,0.9937055837563452,0.4291719461655013,0.0,0.9952105263157894,50,1161,6427,772029,no_split,narrow,individual,1,0.46889567375183105
0,0.0,0.4727883561961735,0.37260959779997477,0.3928812906867398,0.41093817891718953,0.42991552085544305,0.45012443055445184,0.4732083854829902,0.5020707280452881,0.5392085322026461,0.5999191348716808,1.1734789215255104,0.9853403141361257,0.4810829667032948,0.0,0.9785224274406332,50,1161,6583,772029,no_split,narrow,individual,1,0.46639227867126465
1,1.0,0.48950993801638076,0.38124185825725976,0.40621595037000213,0.42836018013607546,0.4499191348716808,0.471104435398941,0.4964525409015151,0.5251855685861638,0.561882127975543,0.618499487336618,1.2121170590384736,0.9715957446808511,0.4810829667032948,0.0,0.9785224274406332,50,1161,6583,772029,no_split,narrow,individual,1,0.46639227867126465
0,0.0,0.44384644313026833,0.35461256945191877,0.3709185411169486,0.387129725880663,0.4038432109567313,0.4195297627286434,0.43896899277313456,0.46394979429220873,0.5005476543313815,0.5616561941236439,1.1967388092984794,0.9895384615384616,0.46954834056616573,0.0,0.9705641025641025,50,1161,6634,772029,no_split,narrow,individual,1,0.46752285957336426
1,1.0,0.4952502380020632,0.3743990390333332,0.4047212356379871,0.4301498988012544,0.4538992175449396,0.4792872925184991,0.5057475987773378,0.5365056640338903,0.5749320607621262,0.6365487001867781,1.1969638402699834,0.9515897435897436,0.46954834056616573,0.0,0.9705641025641025,50,1161,6634,772029,no_split,narrow,individual,1,0.46752285957336426
0,0.0,0.4571461506837942,0.36120477193007317,0.3805945544278443,0.3980577931897392,0.4148624348208955,0.4341409503026721,0.4547895352863757,0.48177597688182366,0.5187865003142145,0.5815616515612873,1.3964236398643495,0.9958947368421053,0.4904129226136188,0.0,0.9829333333333333,50,1161,6844,772029,no_split,narrow,individual,1,0.4700167179107666
1,1.0,0.5245787964874926,0.3881271900741071,0.4257085936780311,0.4554969482505398,0.48412212623240125,0.5110873695389604,0.5407970237466052,0.573460356275482,0.6137442598322929,0.6762107727847784,1.2095909985983637,0.9696216216216216,0.4904129226136188,0.0,0.9829333333333333,50,1161,6844,772029,no_split,narrow,individual,1,0.4700167179107666
0,0.0,0.44225056899000575,0.34714597639476036,0.36477858373482236,0.3813517777547363,0.39862864323771,0.4164515057972879,0.43851402956840557,0.4650312361240639,0.5033277617955584,0.5693226831173674,1.2898894376639027,0.9899453551912568,0.46779732231410753,0.0,0.9719346049046321,50,1161,7624,772029,no_split,narrow,individual,1,0.4664876461029053
1,1.0,0.49320523458753485,0.36534681964123056,0.3963872383112509,0.42350242370381797,0.44891722747711166,0.47511742928522605,0.504302722987696,0.5360218586251088,0.5775362175658745,0.6401942934359444,1.3222840369990048,0.9540217391304348,0.46779732231410753,0.0,0.9719346049046321,50,1161,7624,772029,no_split,narrow,individual,1,0.4664876461029053
0,0.0,0.4088275033479226,0.33326854455024796,0.3479191650515916,0.3609640144414453,0.3739780645781411,0.3891467392149649,0.40516678166368053,0.4269333632865354,0.45726660870820296,0.5076476302427141,1.1682654887689417,0.9908021390374332,0.4376914686653574,0.0,0.9655352480417755,50,1161,7756,772029,no_split,narrow,individual,1,0.4683072566986084
1,1.0,0.46523004782025695,0.35194401783172335,0.38017653405477425,0.4041858202750162,0.4276563467319386,0.45184681039131275,0.4765683273446724,0.5041437991985015,0.5394200930885704,0.5942657943470723,1.0192685445502478,0.9414285714285714,0.4376914686653574,0.0,0.9655352480417755,50,1161,7756,772029,no_split,narrow,individual,1,0.4683072566986084
0,0.0,0.43700830663307166,0.325263548555408,0.3502797944150137,0.37207876830632824,0.39409033345381034,0.4160056279635779,0.4416902846414417,0.47201070407129064,0.511264539916025,0.5746753690564516,1.1531487146621748,0.9945833333333334,0.4455998262409147,0.0,0.9920855614973262,50,1161,7768,772029,no_split,narrow,individual,1,0.4647026062011719
1,1.0,0.4546634073656724,0.33670580351951923,0.36553588821795246,0.3889664458293651,0.4129596671730723,0.4385550824118636,0.4656417734540712,0.49635385415893096,0.5350828571323998,0.5928943219915397,1.1296344447189868,0.9894505494505494,0.4455998262409147,0.0,0.9920855614973262,50,1161,7768,772029,no_split,narrow,individual,1,0.4647026062011719
0,0.0,0.4068209065364224,0.30795307993621984,0.32594064599868555,0.3429372109428351,0.36026265423359666,0.3796985443378259,0.40132718046219523,0.4304573475296324,0.47019778421528763,0.5409697161190336,1.2869408226792962,0.9873796791443851,0.434270903373867,0.0,0.9684408602150537,50,1161,7807,772029,no_split,narrow,individual,1,0.46126341819763184
1,1.0,0.4620176569338787,0.3232918325708663,0.35601091456517675,0.38695292406475434,0.41569087165087615,0.4437910854206616,0.4738745418497223,0.5088616853173572,0.5521713438133754,0.6197774587786226,1.4366138699000617,0.9492972972972973,0.434270903373867,0.0,0.9684408602150537,50,1161,7807,772029,no_split,narrow,individual,1,0.46126341819763184
0,0.0,0.40475339791748244,0.322170343719744,0.3383377949684302,0.3534236690803875,0.3689724819299737,0.3842617287689075,0.4035691436299258,0.42645916745011364,0.4580786362014843,0.514073006995268,0.9878894206394091,0.9924175824175824,0.42262805074388043,0.0,0.9815512465373961,50,1161,7813,772029,no_split,narrow,individual,1,0.4758429527282715
1,1.0,0.44080227875731304,0.33724666180569396,0.3626747706831004,0.38440186726129266,0.40416480388084697,0.425970596633638,0.4493889235469,0.47530141152816896,0.5088894206394091,0.5622293625759259,1.0646922576085345,0.9705027932960893,0.42262805074388043,0.0,0.9815512465373961,50,1161,7813,772029,no_split,narrow,individual,1,0.4758429527282715
0,0.0,0.4092510891183755,0.33033260771947487,0.3493510310319796,0.3654418297167058,0.381204036300053,0.3977475980310626,0.4153326077194749,0.4354418297167058,0.46110273634114063,0.5019354110352152,0.7916511519673117,0.9990425531914894,0.4384547166726202,0.0,0.996980198019802,50,1161,7828,772029,no_split,narrow,individual,1,0.48051023483276367
1,1.0,0.4638726888031666,0.36192987530709086,0.392204036300053,0.4153570896405598,0.43788172274501014,0.4579442236679479,0.478675419410473,0.5016646128152492,0.5296616847104972,0.5718045682664601,0.8624992360666094,0.9951851851851852,0.4384547166726202,0.0,0.996980198019802,50,1161,7828,772029,no_split,narrow,individual,1,0.48051023483276367
0,0.0,0.5437394263697338,0.38829738801113933,0.4185191686527066,0.4477146572972098,0.4765323811463036,0.506750822408585,0.5430085415947445,0.5865850420132778,0.6452155841472842,0.7495758278683041,1.5038685903801359,0.9913227513227513,0.5640243703835149,0.0,0.9817054263565892,50,1161,7840,772029,no_split,narrow,individual,1,0.4743459224700928
1,1.0,0.5833872714875789,0.41010128913882776,0.4541612569878428,0.49019940247184896,0.5227017246928107,0.557050198505739,0.5937511901407061,0.6382707127904605,0.6975891253145646,0.7866717494477107,1.4756557371722716,0.9725252525252526,0.5640243703835149,0.0,0.9817054263565892,50,1161,7840,772029,no_split,narrow,individual,1,0.4743459224700928
0,0.0,0.47999429087674644,0.3909487233381373,0.41211123244106274,0.4308111615947097,0.44739254969511527,0.46595008282048966,0.4859262182412453,0.5099122375387019,0.5402483796186116,0.5872155165742143,1.0398749313829867,0.999,0.5022367264323021,0.0,0.99664,50,1161,7924,772029,no_split,narrow,individual,1,0.47458338737487793
1,1.0,0.5227682054066609,0.421273573261165,0.45137930223132366,0.4740561262422638,0.4948751756910543,0.5152451570091462,0.5359843574190547,0.5589621476017782,0.5897532785006363,0.6342178128045236,1.0982479378693897,0.9944615384615385,0.5022367264323021,0.0,0.99664,50,1161,7924,772029,no_split,narrow,individual,1,0.47458338737487793
0,0.0,0.4661649385841081,0.357773223256945,0.38211999219200965,0.4042102292205542,0.4259124066893519,0.44759064729071757,0.47196598849688165,0.50207042220463,0.5392087820109956,0.5959644051175903,1.1480725115416144,0.9976842105263158,0.4800944056060935,0.0,0.9955443037974684,50,1161,7939,772029,no_split,narrow,individual,1,0.46764373779296875
1,1.0,0.49300464333378724,0.37753123292765706,0.4095246890251782,0.4358088755544928,0.45953102649503663,0.4825923019431063,0.5069062278217807,0.532843372204008,0.5673425813337901,0.6198747125640129,1.0224304179083479,0.9935609756097561,0.4800944056060935,0.0,0.9955443037974684,50,1161,7939,772029,no_split,narrow,individual,1,0.46764373779296875
0,0.0,0.4510092822118052,0.3337981949915337,0.36088813082661764,0.3832372591783291,0.4050946351184973,0.42864046845412185,0.45598339089845863,0.48809280441142666,0.5286850254016924,0.596645705764586,1.1936351376955519,0.9935757575757576,0.46827619438437834,0.0,0.9893220338983051,50,1161,8026,772029,no_split,narrow,individual,1,0.47109365463256836
1,1.0,0.4833504827890058,0.3496105728626496,0.3857864091077479,0.4151027317161818,0.4414794428534444,0.4679725185363066,0.4953792138306429,0.5277348253116992,0.5702963814979274,0.6331065817562536,1.4467511398262287,0.9856084656084656,0.46827619438437834,0.0,0.9893220338983051,50,1161,8026,772029,no_split,narrow,individual,1,0.47109365463256836
0,0.0,0.45877731557158963,0.33070457228410605,0.353188351503403,0.3745922119153444,0.3960673273741534,0.42057329121917614,0.44977343617369436,0.4883623538627337,0.5418539222083532,0.6388835574992595,1.2944129886218767,0.9522994652406417,0.4707627563451593,0.0,0.9378082191780822,50,1161,8311,772029,no_split,narrow,individual,1,0.46199655532836914
1,1.0,0.48335420255110056,0.3402124123713101,0.3685711137026831,0.39657002494443655,0.4243110841856896,0.45209336107607806,0.48640114724718836,0.5266172413778981,0.5784638574757491,0.6646438443625124,1.394687887805827,0.9225842696629214,0.4707627563451593,0.0,0.9378082191780822,50,1161,8311,772029,no_split,narrow,individual,1,0.46199655532836914
0,0.0,0.3841174613387575,0.30665513738767397,0.32214485196909803,0.3360898391852497,0.3499184662872617,0.3643630328999222,0.3811571752164348,0.4023423913533659,0.4306610569830516,0.48390078524381536,0.9713759817539128,0.9948186528497409,0.41582470876563593,0.0,0.9740379403794038,50,1161,8446,772029,no_split,narrow,individual,1,0.4726560115814209
1,1.0,0.4505945880462469,0.32765219216892427,0.36065513738767396,0.38783102620025944,0.4142257083840373,0.4388828023478242,0.4647630582690735,0.4939683250908055,0.5295977410553446,0.5841346192147588,0.9673759817539128,0.95125,0.41582470876563593,0.0,0.9740379403794038,50,1161,8446,772029,no_split,narrow,individual,1,0.4726560115814209
0,0.0,0.4897717479647246,0.38950112057254876,0.40949592542454666,0.427315273379345,0.44497015248877286,0.46528670920874077,0.488215636614601,0.5172022933125426,0.5560929372486608,0.6208363609259133,1.1889924636924958,0.9846231155778894,0.5030142821943141,0.0,0.9785454545454545,50,1161,8521,772029,no_split,narrow,individual,1,0.44673585891723633
1,1.0,0.5171823698915631,0.401788333037932,0.4284580286964191,0.4512559126505318,0.47414745899919597,0.4976611335612741,0.524469860605654,0.5554829375545413,0.5961404908582518,0.6578245810099071,1.1310173859978445,0.9720430107526882,0.5030142821943141,0.0,0.9785454545454545,50,1161,8521,772029,no_split,narrow,individual,1,0.44673585891723633
0,0.0,0.5539301751563709,0.41157141067835945,0.441728613541547,0.47227735971119766,0.5001027270880044,0.5289897383844842,0.561427878513357,0.601063146558012,0.6485898223401195,0.7276555107521983,1.3875690289608742,0.9951912568306011,0.5633996251070496,0.0,0.9931232091690544,50,1161,8704,772029,no_split,narrow,individual,1,0.43976569175720215
1,1.0,0.5738388380044847,0.42339964288171145,0.4607624241660228,0.4910513192330839,0.521590649545943,0.5515323775970609,0.5857098812151216,0.6227726976105509,0.673082210422228,0.7526061230885467,1.3016054242104125,0.9908433734939759,0.5633996251070496,0.0,0.9931232091690544,50,1161,8704,772029,no_split,narrow,individual,1,0.43976569175720215
0,0.0,0.43753363252402383,0.32242574637077387,0.3476387221641958,0.36961294442631537,0.3921107009543763,0.4153548701814667,0.44130297062619955,0.47226319901335234,0.5160630221728512,0.583425381480764,1.137222606682886,0.9989371980676328,0.46343854960156755,0.0,0.9949484536082475,50,1161,8755,772029,no_split,narrow,individual,1,0.44273829460144043
1,1.0,0.49306461498859266,0.3554900941204687,0.3933884920846212,0.42393936302612995,0.4518768227660375,0.47977412159871513,0.5100638606817145,0.5424164262082567,0.5844602893739218,0.6458836652288105,1.2123681335732572,0.9903867403314918,0.46343854960156755,0.0,0.9949484536082475,50,1161,8755,772029,no_split,narrow,individual,1,0.44273829460144043
0,0.0,0.4553834767388554,0.3463891888748687,0.36728267095111833,0.3855825587524234,0.4060045843266282,0.42849482652566206,0.4525332380178516,0.48542492413374055,0.5294311001287619,0.6052172756422189,1.120867922122744,0.9964423076923077,0.4767337728927016,0.0,0.9851,50,1161,8785,772029,no_split,narrow,individual,1,0.44676947593688965
1,1.0,0.4998632603927015,0.37549197637389975,0.4087290075463168,0.4353746795365565,0.4593746081676152,0.4847539029113284,0.5115825587524234,0.5428965596606724,0.5816002676042358,0.6421962984293893,1.1654937108729626,0.9728125,0.4767337728927016,0.0,0.9851,50,1161,8785,772029,no_split,narrow,individual,1,0.44676947593688965
0,0.0,0.4052103182876296,0.31113812180358097,0.32826028841367183,0.3434217946991876,0.35890634656729287,0.3762733162322205,0.3972556349957279,0.4241148466213154,0.46242593034311824,0.532635265502011,1.3680274593257378,0.9839361702127659,0.43889739316593185,0.0,0.9531105398457583,50,1161,8788,772029,no_split,narrow,individual,1,0.44710850715637207
1,1.0,0.47040570200732895,0.3314333105219263,0.36463446546363215,0.3942017879755946,0.42307621925625855,0.45214200100062524,0.4831187258183597,0.5171803492155136,0.5613735607642256,0.628674772801628,1.3563583034408355,0.9242786069651742,0.43889739316593185,0.0,0.9531105398457583,50,1161,8788,772029,no_split,narrow,individual,1,0.44710850715637207
0,0.0,0.43470911111930544,0.3750463233488299,0.3870402677025056,0.3977865831568537,0.4090482304420312,0.42105440357768414,0.4337799821406167,0.4498683879960527,0.4722524571543717,0.511575188183263,0.9517304994324672,0.9952222222222222,0.4559340346165732,0.0,0.9808196721311475,50,1161,161753,772029,no_split,narrow,individual,1,0.45754313468933105
1,1.0,0.47647428316231616,0.3917798317117263,0.41374401496777785,0.4325907771319866,0.4505391469129253,0.46775634238993413,0.48585038976710015,0.5066960119064864,0.5318734662245573,0.5711034325705132,0.9038404964934204,0.9668817204301076,0.4559340346165732,0.0,0.9808196721311475,50,1161,161753,772029,no_split,narrow,individual,1,0.45754313468933105
0,0.0,0.45269065452025875,0.36889471664352225,0.3869677204000091,0.4031276910875126,0.41939759508603963,0.43534302880401293,0.4544215207626269,0.4772252868284476,0.5074817144680223,0.5568231180785773,1.1048970889998002,0.9979381443298969,0.4747072837152576,0.0,0.9917553191489362,50,1161,337788,772029,no_split,narrow,individual,1,0.4637880325317383
1,1.0,0.49817555879124553,0.3924315065593807,0.4209234473552069,0.4428970889998001,0.4638733654370216,0.4864135321252238,0.509998300619313,0.5351977903269097,0.5677675190247771,0.6181989258964247,0.9674135321252239,0.9851648351648352,0.4747072837152576,0.0,0.9917553191489362,50,1161,337788,772029,no_split,narrow,individual,1,0.4637880325317383
