,congruency,mean_rt,qu10_rt,qu20_rt,qu30_rt,qu40_rt,qu50_rt,qu60_rt,qu70_rt,qu80_rt,qu90_rt,qu100_rt,mean_acc,mean_rt_overall,nonconvergent_trials,accuracy_overall,n_posterior_draws,condition,id,slurm_id,split,spacing,estimation_level,number_parts,time_post_sampling_sec
0,0.0,0.42350219115307036,0.3379323497073045,0.3560030654873236,0.37197603621852626,0.38791105982999574,0.40456700179307015,0.4247358455211029,0.44893283255640654,0.48012772465454856,0.5318087246968142,1.2522838850066202,0.9743157894736842,0.4281167500465965,0.0,0.9594708994708995,50,1164,1108,772032,no_split,wide,individual,1,0.507530927658081
1,1.0,0.4327803999921815,0.34704994843471537,0.3681307615238749,0.3856499496755367,0.40114859594631475,0.417875163588723,0.43724727142687264,0.45898638134854636,0.4885930958638038,0.5352284534349707,1.1434938348609565,0.944468085106383,0.4281167500465965,0.0,0.9594708994708995,50,1164,1108,772032,no_split,wide,individual,1,0.507530927658081
0,0.0,0.44443419956821684,0.35832253210549775,0.3809939767763841,0.39888751080348367,0.41458352377290947,0.4320169479459641,0.45009253590020054,0.47153074635347947,0.49974796519839176,0.5441775761720995,1.0865886003096241,0.9637037037037037,0.4527743771122398,0.0,0.9566842105263158,50,1164,1507,772032,no_split,wide,individual,1,0.4924459457397461
1,1.0,0.461027222954231,0.3606123982149988,0.3844201143988954,0.40323716315600705,0.4213744780755863,0.441083566409017,0.46493036597543663,0.4920752001788712,0.5278131180263513,0.5884793912692342,1.190374523624665,0.949738219895288,0.4527743771122398,0.0,0.9566842105263158,50,1164,1507,772032,no_split,wide,individual,1,0.4924459457397461
0,0.0,0.4547736479915067,0.359013279831733,0.38315814655268915,0.4034627971370453,0.42284173696357885,0.4405504197045381,0.46016624425903957,0.4834489470056293,0.5158858676470667,0.5680203131237713,1.1716203205750682,0.9827368421052631,0.46438342839971364,0.0,0.9779002624671916,50,1164,1538,772032,no_split,wide,individual,1,0.49306344985961914
1,1.0,0.47394289582149,0.366464309634446,0.39463475402215265,0.4176250126779463,0.4389719510298051,0.46090342073691476,0.4835827658023301,0.5113132046357135,0.5461028389296761,0.5972709126824529,1.1792163481630595,0.973089005235602,0.46438342839971364,0.0,0.9779002624671916,50,1164,1538,772032,no_split,wide,individual,1,0.49306344985961914
0,0.0,0.4696174225398639,0.37536061832546047,0.39718865439611567,0.4160794050278017,0.43412360696724867,0.45266375516508206,0.474055099424918,0.49905168472381706,0.532976692048179,0.586274553126725,1.0633449068836944,0.9828260869565217,0.47377887624276716,0.0,0.9773513513513513,50,1164,1582,772032,no_split,wide,individual,1,0.5090057849884033
1,1.0,0.47789558313166064,0.38251745029473544,0.40685024245286605,0.42634551100362283,0.4446790509933819,0.4631689912735596,0.4838030528695123,0.5076879553956455,0.5416824284045082,0.590062488777197,1.0330336805232307,0.9719354838709677,0.47377887624276716,0.0,0.9773513513513513,50,1164,1582,772032,no_split,wide,individual,1,0.5090057849884033
0,0.0,0.43927265349747374,0.3561766880672115,0.37635905001229103,0.39263845778628625,0.40757126102687874,0.42306553975522737,0.4401515060929169,0.46126545349414483,0.48955679192225604,0.5438263909355987,1.0743449519032477,0.9726701570680628,0.4512168679643668,0.0,0.9510182767624021,50,1164,1583,772032,no_split,wide,individual,1,0.5034520626068115
1,1.0,0.46309887298091135,0.3695868327987557,0.39421958874134416,0.4133867180823395,0.4318958667496448,0.450339710345642,0.47035796819167675,0.4934899003064862,0.5230808258427775,0.5722645518057857,1.0680076585077478,0.9294791666666666,0.4512168679643668,0.0,0.9510182767624021,50,1164,1583,772032,no_split,wide,individual,1,0.5034520626068115
0,0.0,0.5670275570573023,0.4037040839089787,0.4396849616586577,0.4719130954599801,0.5022919022976933,0.5357548144331401,0.5703523721991377,0.6146655222182328,0.6722890940775836,0.7745725865572075,1.575367653392455,0.9661016949152542,0.5739448734649364,0.0,0.960989010989011,50,1164,1597,772032,no_split,wide,individual,1,0.49596142768859863
1,1.0,0.5804922799042476,0.412187407739825,0.4511474275253559,0.4838668681732191,0.5157788552551642,0.5507413495204363,0.5882103408137594,0.6327591096790064,0.692101768581835,0.7878339264576634,1.4932027571092608,0.9561497326203209,0.5739448734649364,0.0,0.960989010989011,50,1164,1597,772032,no_split,wide,individual,1,0.49596142768859863
0,0.0,0.40849084829482435,0.33577181746610724,0.3549371511762887,0.37056071547725145,0.38424597400143495,0.39824596823761066,0.4135426102590031,0.43219180269331453,0.4557875036735191,0.49255556835652753,0.9117117992380995,0.9890526315789474,0.42023673068703127,0.0,0.9839577836411609,50,1164,1601,772032,no_split,wide,individual,1,0.4979743957519531
1,1.0,0.4320447606051228,0.3417234512353564,0.36595187490416126,0.3845102429076106,0.4023035596230791,0.41954052792829033,0.43918660454173286,0.46187435372521,0.4925244862360709,0.5369235966318422,0.8966624710360231,0.9788359788359788,0.42023673068703127,0.0,0.9839577836411609,50,1164,1601,772032,no_split,wide,individual,1,0.4979743957519531
0,0.0,0.4811808563613923,0.34918819766506265,0.37736637568230896,0.4032293830554208,0.4284445145116948,0.4556462134003583,0.48495305692216356,0.5213994762722901,0.5687414924392824,0.6474252403450049,1.3350024224245964,0.9717894736842105,0.4907760222658871,0.0,0.9662631578947368,50,1164,1614,772032,no_split,wide,individual,1,0.4913914203643799
1,1.0,0.5003711881703818,0.3548501918668808,0.38882241786508914,0.41682976229117796,0.443578437348218,0.4729361395001602,0.5072390772884062,0.5465214390581079,0.5969073912325805,0.6789649296653607,1.3688862571867562,0.9607368421052631,0.4907760222658871,0.0,0.9662631578947368,50,1164,1614,772032,no_split,wide,individual,1,0.4913914203643799
0,0.0,0.43141674044464534,0.3746754950123921,0.3901477941942274,0.40255104003049236,0.41359299955929946,0.4250877879149719,0.4370556714792133,0.4502806094660915,0.4672664278751868,0.49427161499458155,0.7225235225562785,0.9914736842105263,0.4386293314587249,0.0,0.9886089238845145,50,1164,161753,772032,no_split,wide,individual,1,0.49681687355041504
1,1.0,0.44580416021618635,0.38094059309881406,0.3978858583719836,0.4118149718948632,0.4251156957645798,0.43781660089946717,0.45174526116156555,0.46788077753548957,0.48794271590801636,0.5217117335297948,0.852043633138927,0.9857591623036649,0.4386293314587249,0.0,0.9886089238845145,50,1164,161753,772032,no_split,wide,individual,1,0.49681687355041504
0,0.0,0.4712924147733982,0.37437803786639,0.3967102947648117,0.4168810059731253,0.4352017409382376,0.4538703617212328,0.4754127723097397,0.5015102717412704,0.535160189977505,0.5922556659793322,1.0017493425266475,0.9787234042553191,0.47601585824241505,0.0,0.9733509234828496,50,1164,1638,772032,no_split,wide,individual,1,0.49255967140197754
1,1.0,0.4806651114998766,0.3804230064123601,0.40511295324674623,0.42514242610491376,0.44538110915906365,0.4654011480095787,0.48704893304570274,0.5139134084192729,0.5469786821967226,0.5992794159520842,1.2770748764606739,0.9680628272251309,0.47601585824241505,0.0,0.9733509234828496,50,1164,1638,772032,no_split,wide,individual,1,0.49255967140197754
0,0.0,0.39628034298411874,0.3252939721293372,0.3439749692671657,0.3578264608727349,0.3711140474375068,0.3855114208529624,0.40099448212411276,0.4182998302675222,0.4418016394370729,0.4822302260603861,0.8847958575921337,0.9766315789473684,0.40536877671851773,0.0,0.9615303430079156,50,1164,1657,772032,no_split,wide,individual,1,0.49059581756591797
1,1.0,0.41450529740389236,0.33384037246742,0.3528829004864593,0.3690506182326391,0.38481903218889296,0.40234009494171075,0.4197112390152701,0.44045718892609154,0.4684967754863198,0.5137633851121259,0.945658038488958,0.9463492063492064,0.40536877671851773,0.0,0.9615303430079156,50,1164,1657,772032,no_split,wide,individual,1,0.49059581756591797
0,0.0,0.46636649511384853,0.37425848992388955,0.39528224487507624,0.41364072475633035,0.4307865462998897,0.44857153827673435,0.4696367432687363,0.4927207137332305,0.5266583945461404,0.5767212180310235,1.3356920728791604,0.9856382978723405,0.4767829249550998,0.0,0.9812698412698413,50,1164,1663,772032,no_split,wide,individual,1,0.4885365962982178
1,1.0,0.4870897081664432,0.3842845315125455,0.4093206649574924,0.42896211940888407,0.4505994645259937,0.4702458133527565,0.49296709743234507,0.5197069838457055,0.5557436637369421,0.6106222992910416,1.0672299153808695,0.9769473684210527,0.4767829249550998,0.0,0.9812698412698413,50,1164,1663,772032,no_split,wide,individual,1,0.4885365962982178
0,0.0,0.5087102826106356,0.39807818513768983,0.4263215899509765,0.4499043156544962,0.47066506619369697,0.49129350189435134,0.5144698828640231,0.5426167461738695,0.5793434343590543,0.6451264586964512,1.2212339513121793,0.9705376344086022,0.5184515145110881,0.0,0.9606434316353888,50,1164,1761,772032,no_split,wide,individual,1,0.4928731918334961
1,1.0,0.5281406542623401,0.40401340883529724,0.43466020415308104,0.46100556019862576,0.48560394292273346,0.5095151521868126,0.5369742752200414,0.570007213950732,0.6105595671940882,0.6764979794200132,1.294395142771896,0.9508021390374332,0.5184515145110881,0.0,0.9606434316353888,50,1164,1761,772032,no_split,wide,individual,1,0.4928731918334961
0,0.0,0.44712802871019136,0.34643547548380105,0.3726378653271822,0.39161214313935405,0.41036311315282864,0.4297238005616281,0.4510462613603758,0.47657632015120915,0.510767972241939,0.5690129944298922,1.1319488773403927,0.9383246073298429,0.4527696624458598,0.0,0.9303141361256545,50,1164,1768,772032,no_split,wide,individual,1,0.5016112327575684
1,1.0,0.45841129618152826,0.34876912682832634,0.37617433406083167,0.39741432540479193,0.4176350376786867,0.4390117529034694,0.46373081467653837,0.49111115296807567,0.5295053452285823,0.5916445998991156,1.237870552689146,0.922303664921466,0.4527696624458598,0.0,0.9303141361256545,50,1164,1768,772032,no_split,wide,individual,1,0.5016112327575684
0,0.0,0.38084054303343096,0.30568436516331604,0.32464572559301247,0.3401667230535232,0.3546360616239057,0.369187769077459,0.3850991484837418,0.4040877171324932,0.4297008961948228,0.46938059770424456,1.0782268222273628,0.9614893617021276,0.3842583901920169,0.0,0.949840425531915,50,1164,1813,772032,no_split,wide,individual,1,0.4954352378845215
1,1.0,0.3876762373506028,0.30564390003877223,0.32592267589204155,0.34257065050768043,0.3584647949680166,0.3746454388026388,0.3921904587762008,0.41375563037743357,0.4411794355268591,0.4869158956059678,1.0852950738518403,0.9381914893617022,0.3842583901920169,0.0,0.949840425531915,50,1164,1813,772032,no_split,wide,individual,1,0.4954352378845215
0,0.0,0.3910993066571159,0.3123680094002658,0.33206639410129923,0.34788006798619125,0.36206804178974045,0.3768166682180995,0.39349556376593425,0.4139348343128679,0.44268952682228024,0.48657394378951785,1.0017687398734725,0.9809473684210527,0.39818678087694787,0.0,0.9766404199475066,50,1164,1821,772032,no_split,wide,individual,1,0.5034432411193848
1,1.0,0.4052371479019116,0.31875018980945413,0.3397342920560048,0.35808159953566215,0.37465945809473744,0.3919442997664817,0.4107636827094122,0.43384044871181676,0.46330122165985804,0.5080190184348105,0.9817967898018687,0.9723560209424084,0.39818678087694787,0.0,0.9766404199475066,50,1164,1821,772032,no_split,wide,individual,1,0.5034432411193848
0,0.0,0.4430639387997783,0.35202503989143014,0.37503908927354856,0.39316757635067623,0.41044869084208846,0.4284504541112727,0.4479899304742586,0.47132160455471134,0.5018823160433648,0.5513707315008243,1.0041744483561714,0.9798952879581152,0.4486823473377736,0.0,0.9799468085106383,50,1164,275,772032,no_split,wide,individual,1,0.5086393356323242
1,1.0,0.45448297453105535,0.35606343589852474,0.3792055090275787,0.3983118720521998,0.4176867051480169,0.43759398065162414,0.458381014296534,0.48482978370878604,0.5207744691396563,0.5785109705228414,1.1138813303914583,0.98,0.4486823473377736,0.0,0.9799468085106383,50,1164,275,772032,no_split,wide,individual,1,0.5086393356323242
0,0.0,0.3822921388437687,0.3070121279477935,0.32450424850182386,0.33893518294178937,0.3534472484425562,0.36812163138595544,0.3840219837915896,0.40517018263832116,0.4311842337005879,0.47520029582832873,0.9974375039751976,0.977872340425532,0.3900724198277102,0.0,0.9702917771883289,50,1164,3286,772032,no_split,wide,individual,1,0.5052411556243896
1,1.0,0.3978115353038,0.3119392161283972,0.33120257787043583,0.34785244572708557,0.36371113726136206,0.3820296268958133,0.40147884378755594,0.424673021883967,0.4561598169965528,0.5030888837083255,0.9552230582904918,0.9627513227513228,0.3900724198277102,0.0,0.9702917771883289,50,1164,3286,772032,no_split,wide,individual,1,0.5052411556243896
0,0.0,0.4572213306385437,0.36331045341521007,0.3872782348428895,0.4067655411386863,0.42464967223236677,0.44196846331233197,0.46143058055943703,0.4849009598467927,0.5174545155150453,0.5674896052951248,1.0484960834280705,0.9794708994708995,0.4674820951769826,0.0,0.9751978891820581,50,1164,3292,772032,no_split,wide,individual,1,0.5029592514038086
1,1.0,0.4776888556915349,0.3718635028679082,0.3971578550925745,0.4194401667451048,0.4407001142550954,0.4624446180194044,0.4864378083888814,0.512316227490214,0.5468629403384373,0.6041830401135981,1.0670407946318068,0.9709473684210527,0.4674820951769826,0.0,0.9751978891820581,50,1164,3292,772032,no_split,wide,individual,1,0.5029592514038086
0,0.0,0.45250993743998924,0.37053190269262226,0.39243700070830995,0.4103252541474386,0.4264961055679442,0.4426635921628932,0.46076409829561266,0.4809746236297029,0.5070256072864352,0.5466267168589141,0.9130260627127771,0.988421052631579,0.4583427653488568,0.0,0.9860367454068242,50,1164,337788,772032,no_split,wide,individual,1,0.5047924518585205
1,1.0,0.4641450548917093,0.3735229689291168,0.3977468651761423,0.41648934975482244,0.4335108671013399,0.452165372448583,0.47201326486144846,0.4945896610418518,0.524247013122116,0.5700597271502914,0.9392071554417678,0.9836649214659686,0.4583427653488568,0.0,0.9860367454068242,50,1164,337788,772032,no_split,wide,individual,1,0.5047924518585205
0,0.0,0.40707688576775747,0.3275033207914927,0.34493202556100555,0.36074639632665684,0.37587975542497026,0.39166061955831216,0.40832321628094187,0.42987221694881145,0.45910270581045215,0.5076219833456178,1.0028598652429217,0.9789304812834224,0.4194901795946051,0.0,0.9694086021505376,50,1164,3487,772032,no_split,wide,individual,1,0.5011618137359619
1,1.0,0.43203767119255376,0.33298368138740414,0.3565732355524335,0.3748524792641801,0.3937857996743907,0.41492898062395456,0.43680925836787693,0.46431129167660956,0.498281296552846,0.5543501024967198,1.0147714268934407,0.9597837837837838,0.4194901795946051,0.0,0.9694086021505376,50,1164,3487,772032,no_split,wide,individual,1,0.5011618137359619
0,0.0,0.4115179876887184,0.34790993155350874,0.36663571251585886,0.38045991065632334,0.39322432004649865,0.4053344579985996,0.4182065902220139,0.43235464140868873,0.4508732143221591,0.48187190805876146,0.819567252137625,0.9821989528795811,0.4179351512849719,0.0,0.9767724867724867,50,1164,3580,772032,no_split,wide,individual,1,0.502568244934082
1,1.0,0.42448958041269597,0.35287306090299086,0.37220302879369355,0.38732251061765754,0.40080649425941267,0.41470758184227086,0.42974649113068947,0.44843506245485804,0.47126869539596666,0.5085330053574182,0.7994626189374642,0.9712299465240641,0.4179351512849719,0.0,0.9767724867724867,50,1164,3580,772032,no_split,wide,individual,1,0.502568244934082
0,0.0,0.46907281446500215,0.36655245844461043,0.39264150913119816,0.41239441291308465,0.4311400620138107,0.4506337604110816,0.47132354464736687,0.4970501836713152,0.5338518629847316,0.5947020126408413,1.4142461594784619,0.9532967032967034,0.47849411820161597,0.0,0.93353591160221,50,1164,3625,772032,no_split,wide,individual,1,0.49498844146728516
1,1.0,0.48802010309085897,0.37914740325635904,0.4062213452682262,0.42934258351211235,0.45178267526940513,0.4719580550582876,0.4963570495084747,0.5231682859535733,0.5588768193463552,0.6159065366164079,1.247659872842948,0.9135555555555556,0.47849411820161597,0.0,0.93353591160221,50,1164,3625,772032,no_split,wide,individual,1,0.49498844146728516
0,0.0,0.5451332016486825,0.43221685734822396,0.4621799189171698,0.4875487009142729,0.5104171068144924,0.5319265041406785,0.5553481779348209,0.5842435032633746,0.6179202516674185,0.6728948117529445,1.3907354362481386,0.9906806282722513,0.552627933208263,0.0,0.9890288713910761,50,1164,3754,772032,no_split,wide,individual,1,0.5047402381896973
1,1.0,0.5601621107234201,0.44028080256728486,0.4736593129696891,0.49908020076190596,0.523627805336396,0.5469736105400489,0.5718906947102701,0.6021344863355613,0.6370037984046868,0.6954977511600957,1.1894313394087495,0.9873684210526316,0.552627933208263,0.0,0.9890288713910761,50,1164,3754,772032,no_split,wide,individual,1,0.5047402381896973
0,0.0,0.41677178566425377,0.34050850489736256,0.3596396020643649,0.3746986778806715,0.3892591970627138,0.40499615534248123,0.4213712997690305,0.44164982955063614,0.46629760549106686,0.5069903383721949,0.9826303043049586,0.966984126984127,0.4222747200590308,0.0,0.9635356200527705,50,1164,3910,772032,no_split,wide,individual,1,0.4988222122192383
1,1.0,0.4277486916412036,0.34232487029670733,0.3624236201773291,0.3798091389295505,0.3957571703754619,0.41223400829961143,0.43164999041106566,0.45495275116521194,0.48559192198027934,0.5318274286736638,1.0223406979554124,0.9601052631578947,0.4222747200590308,0.0,0.9635356200527705,50,1164,3910,772032,no_split,wide,individual,1,0.4988222122192383
0,0.0,0.40876691057757764,0.33967836995308237,0.35507862655235056,0.3690552346815793,0.382356466542375,0.3961078339521812,0.4107576625485219,0.4294483464880882,0.4544076417678616,0.49205726266697236,0.8751443737737188,0.9783157894736842,0.41170260442498646,0.0,0.9697625329815304,50,1164,4222,772032,no_split,wide,individual,1,0.5005624294281006
1,1.0,0.4146538310440748,0.34432218327503045,0.36150110200000746,0.3762912220457028,0.38968198651300906,0.40386840204288055,0.41950853038229197,0.43805651746474333,0.461170505998025,0.4964749254391718,0.8901439491624655,0.9611640211640211,0.41170260442498646,0.0,0.9697625329815304,50,1164,4222,772032,no_split,wide,individual,1,0.5005624294281006
0,0.0,0.45346958203175564,0.34368925110328685,0.3689735479122972,0.38918867821461295,0.40931454408428286,0.43089530047836055,0.45434322048712045,0.4826051146817744,0.5253650126045363,0.5996042283462635,1.3951909256164248,0.9464550264550264,0.462103085295884,0.0,0.9186772486772486,50,1164,4264,772032,no_split,wide,individual,1,0.4976921081542969
1,1.0,0.4707365885600123,0.35915616340369927,0.38621549754716467,0.4089858268027342,0.43002722098662,0.4520878210258952,0.4768870553276239,0.5054569454732295,0.5438311824749985,0.6059580682140213,1.226667891261663,0.8908994708994709,0.462103085295884,0.0,0.9186772486772486,50,1164,4264,772032,no_split,wide,individual,1,0.4976921081542969
0,0.0,0.43418061105609973,0.36888964872077606,0.38489929269978435,0.39796612978977997,0.4102405792907392,0.42267715191448496,0.43690142069185955,0.45417302933051296,0.476733295395697,0.5149656798588502,0.8168586041935747,0.9852127659574468,0.43942643475126725,0.0,0.9773866666666666,50,1164,5281,772032,no_split,wide,individual,1,0.5009539127349854
1,1.0,0.444700310979564,0.3745828360931132,0.3933520709821029,0.4076052791572698,0.42131628910856206,0.4353233401772306,0.4492746417749499,0.46737366332876296,0.49047111915228614,0.5275008411313268,0.8181201927367487,0.9695187165775401,0.43942643475126725,0.0,0.9773866666666666,50,1164,5281,772032,no_split,wide,individual,1,0.5009539127349854
0,0.0,0.465368298184557,0.37326289479302815,0.39541101642540827,0.4139633936380027,0.43142137923061913,0.45027855580729303,0.4704958034630592,0.49331600639527895,0.5250201931207155,0.5733644910246322,1.0717413915026046,0.9887830687830688,0.47234240211837236,0.0,0.9849066666666667,50,1164,5332,772032,no_split,wide,individual,1,0.49930548667907715
1,1.0,0.47942899159950736,0.3770027076299951,0.40139477495910725,0.422794982126153,0.44319362894591613,0.46326427213515314,0.48736587541905174,0.5138052817746172,0.5490697550026217,0.6033855481670787,1.0794820099342546,0.9809677419354839,0.47234240211837236,0.0,0.9849066666666667,50,1164,5332,772032,no_split,wide,individual,1,0.49930548667907715
0,0.0,0.44610138188198106,0.36109230050381663,0.38328274734480794,0.40060800158019555,0.41618626880632287,0.4321216028128487,0.4496775064960629,0.47121543978937563,0.5005674367330042,0.5468099078994293,1.1347833084126173,0.9782105263157894,0.45769284718685155,0.0,0.9629551451187335,50,1164,5575,772032,no_split,wide,individual,1,0.4911956787109375
1,1.0,0.4693456429959807,0.37021021970932155,0.3935016599133882,0.4138172915302383,0.43368861827548777,0.4537568400896235,0.4762913368844118,0.5031342756583274,0.5367876842513586,0.58760272822315,1.116499358893875,0.9476190476190476,0.45769284718685155,0.0,0.9629551451187335,50,1164,5575,772032,no_split,wide,individual,1,0.4911956787109375
0,0.0,0.4485544074400859,0.35976976320968274,0.3809394043754933,0.39615480116944984,0.41211763799750994,0.4297961171371486,0.44856919056892347,0.47279907329947757,0.5062044729173083,0.5593059879385709,1.2566320737761338,0.96,0.45360835525845045,0.0,0.9477628032345013,50,1164,5731,772032,no_split,wide,individual,1,0.48883938789367676
1,1.0,0.4585278895710072,0.3653821324495315,0.3871883078946955,0.4051240129258746,0.4231900176593352,0.442314798865711,0.463010725978251,0.4875313732921623,0.5198456865791522,0.5727857842817756,1.08423208892539,0.9358510638297872,0.45360835525845045,0.0,0.9477628032345013,50,1164,5731,772032,no_split,wide,individual,1,0.48883938789367676
0,0.0,0.4290555361534094,0.3501382566562423,0.37228777145657965,0.390038206095814,0.4053261829582622,0.421190686361686,0.43652613856357186,0.4550661349048898,0.47959599954725507,0.5173204768942065,0.8509537436619897,0.9895744680851064,0.44096124159188466,0.0,0.9756498673740053,50,1164,5761,772032,no_split,wide,individual,1,0.4919717311859131
1,1.0,0.4528039538798918,0.3641126412012987,0.38944057522042447,0.40951596873259277,0.42771221164699774,0.4449837145832923,0.4636603550484119,0.48458743698075923,0.5102723784431338,0.5517231972937862,0.8971136783538385,0.9617989417989418,0.44096124159188466,0.0,0.9756498673740053,50,1164,5761,772032,no_split,wide,individual,1,0.4919717311859131
0,0.0,0.4231364092616611,0.32809959296358254,0.35303848916049907,0.3719170615294547,0.3884427569401655,0.407547159781928,0.42772117173427954,0.4518225168022979,0.4839892525360916,0.538539713090797,1.04334949269005,0.9175,0.42585891749075766,0.0,0.9075,50,1164,5803,772032,no_split,wide,individual,1,0.48989200592041016
1,1.0,0.4285814257198542,0.33170874564249564,0.357629924060211,0.3762655595999427,0.39452751391903196,0.4138168872080349,0.4338325283626357,0.4587450684627384,0.4901098462209237,0.54516202044928,1.0751581591709536,0.8975,0.42585891749075766,0.0,0.9075,50,1164,5803,772032,no_split,wide,individual,1,0.48989200592041016
0,0.0,0.4954151080158465,0.3849589700537118,0.41354611852554674,0.43646016571636653,0.4558012811031558,0.4768070408369901,0.4998666766986209,0.5278806677140121,0.5635390971230629,0.6281289271826601,1.3585227659780437,0.9772916666666667,0.5095073919131694,0.0,0.9663350785340314,50,1164,5815,772032,no_split,wide,individual,1,0.489274263381958
1,1.0,0.5237480156409905,0.3930861406191232,0.4248353099366743,0.44981674659381804,0.47637338007566365,0.5027855599464413,0.532016541981372,0.5691106502486926,0.6154091557413031,0.6823399347538812,1.3226692124762969,0.9552631578947368,0.5095073919131694,0.0,0.9663350785340314,50,1164,5815,772032,no_split,wide,individual,1,0.489274263381958
0,0.0,0.4162281676624055,0.34763199238396997,0.36262104303512804,0.3758456096691538,0.3888457888054692,0.4024852692576384,0.41844076475096137,0.4372166544543259,0.4618541324644277,0.5015784742148751,0.8681366999104903,0.9914736842105263,0.42792974383662014,0.0,0.9855026455026455,50,1164,6055,772032,no_split,wide,individual,1,0.49386048316955566
1,1.0,0.439755804863752,0.3565111536754663,0.3779573607792147,0.39484883924950165,0.4120574138552077,0.4291546088443138,0.4482937816775566,0.46847608669739244,0.49349686340810445,0.5350440602339804,1.0608663321426712,0.979468085106383,0.42792974383662014,0.0,0.9855026455026455,50,1164,6055,772032,no_split,wide,individual,1,0.49386048316955566
0,0.0,0.46350251803533987,0.3544379441790391,0.3819231186774649,0.404277771598001,0.42377602192089,0.4453774839186063,0.46899295689915343,0.4973640486722956,0.5329167570038894,0.5945138528379228,1.1053236836997944,0.9604324324324325,0.4685496206240034,0.0,0.9500804289544236,50,1164,6109,772032,no_split,wide,individual,1,0.4852466583251953
1,1.0,0.47351618434157133,0.3614210279948704,0.3898647371435593,0.4127022940354922,0.4340576913350695,0.4562810308714111,0.4806370456824122,0.5084450675574512,0.5466458321992226,0.605618569063597,1.1927657689954945,0.9398936170212766,0.4685496206240034,0.0,0.9500804289544236,50,1164,6109,772032,no_split,wide,individual,1,0.4852466583251953
0,0.0,0.39013970964623307,0.32751944362910324,0.34312052503037505,0.35561508113989615,0.36792877888258474,0.3798435262691565,0.39253893163344883,0.4087823770224725,0.42890363646552554,0.4641797100403964,0.8834546814738009,0.9842931937172775,0.4032518892871026,0.0,0.9738903394255874,50,1164,6214,772032,no_split,wide,individual,1,0.48961877822875977
1,1.0,0.4162957763256758,0.3327860818341036,0.3522969092141503,0.36910403644759565,0.3844064688192195,0.4018399347990391,0.42141476232901914,0.444396584768099,0.4738145015440026,0.5207971414728285,0.8485645179042365,0.9635416666666666,0.4032518892871026,0.0,0.9738903394255874,50,1164,6214,772032,no_split,wide,individual,1,0.48961877822875977
0,0.0,0.4563407260379464,0.35474052438722703,0.3822731103415243,0.40354217604189574,0.4231306949602497,0.44250905286271514,0.4643439751468171,0.48932649431671865,0.5221658627750981,0.5747716950703783,0.9901916656232318,0.9578835978835979,0.46075628668073865,0.0,0.9464021164021164,50,1164,6253,772032,no_split,wide,individual,1,0.4841580390930176
1,1.0,0.46517184732353073,0.360776280326817,0.38933801189194783,0.41196711964213517,0.4329465469902095,0.4539736401214369,0.47565989645714096,0.5004749930507574,0.532861510154128,0.5830997482309509,0.9995306907415068,0.9349206349206349,0.46075628668073865,0.0,0.9464021164021164,50,1164,6253,772032,no_split,wide,individual,1,0.4841580390930176
0,0.0,0.45834229259468556,0.37604712599934853,0.3979427436326763,0.41488471177930136,0.43121860215597885,0.4471241726301364,0.46511726864487607,0.485830312846977,0.5114151681760757,0.5548478331156099,0.954579293497948,0.9836842105263158,0.46393193756028606,0.0,0.9785826771653543,50,1164,6262,772032,no_split,wide,individual,1,0.4899921417236328
1,1.0,0.4694923173689985,0.37787515734440774,0.4018760009003101,0.42196263693747776,0.4396107943574865,0.4578028485362119,0.47704647191926447,0.5002370559347322,0.5287902802652575,0.5755859754879817,0.9725690888826805,0.9735078534031414,0.46393193756028606,0.0,0.9785826771653543,50,1164,6262,772032,no_split,wide,individual,1,0.4899921417236328
0,0.0,0.4969891955327601,0.3974041869550983,0.42178865734522114,0.44109639278453805,0.46015921171457863,0.4795559146409871,0.5006009527986196,0.5272440858550603,0.5632643926593985,0.6182192616643818,1.3108256252298944,0.9914736842105263,0.507242963252743,0.0,0.9837894736842105,50,1164,6361,772032,no_split,wide,individual,1,0.4974234104156494
1,1.0,0.5174967309727257,0.41183760320393825,0.438893570559061,0.462713584890576,0.4834516809104661,0.5045647144161083,0.5266850531536273,0.5534788696420723,0.587690750249432,0.6385118245119762,1.0650244408536214,0.9761052631578947,0.507242963252743,0.0,0.9837894736842105,50,1164,6361,772032,no_split,wide,individual,1,0.4974234104156494
0,0.0,0.4136031051019599,0.3431757052400643,0.3630369482388311,0.3785275161318706,0.391671909247851,0.40568569691124906,0.4196653841034278,0.4369700984138263,0.45828829879728034,0.4925031726945867,0.829454094565618,0.9849624060150376,0.41867481249983396,379.0,0.977761025254429,50,1164,6427,772032,no_split,wide,individual,1,0.49605441093444824
1,1.0,0.4237733543283846,0.3504227049213269,0.3707658190270778,0.3869023258035768,0.401520574924608,0.41543970933156305,0.43074523018044397,0.44877550502648944,0.47091370308715397,0.5094451061133927,0.82240769658668,0.9705215419501134,0.41867481249983396,379.0,0.977761025254429,50,1164,6427,772032,no_split,wide,individual,1,0.49605441093444824
0,0.0,0.45814261601447026,0.38063753058122174,0.4028479612291881,0.4188511964721073,0.4336565486256595,0.449175941975094,0.4652844317445075,0.48417751613252935,0.5067656792163359,0.5461926027943252,0.8849473921315645,0.9670212765957447,0.4641567313226306,0.0,0.96368,50,1164,6583,772032,no_split,wide,individual,1,0.4948093891143799
1,1.0,0.47020300767521955,0.3842308320366828,0.406825203380142,0.4243709145474157,0.4402071303508336,0.4571225564503269,0.47609534297478906,0.4979640055842652,0.5271622682466783,0.5740156261758118,0.9312023136829408,0.9603208556149733,0.4641567313226306,0.0,0.96368,50,1164,6583,772032,no_split,wide,individual,1,0.4948093891143799
0,0.0,0.4431909579609016,0.35702995547284977,0.3817262760355283,0.3996884735122119,0.4154542104549953,0.43252365967072715,0.45077493695240045,0.47055389541912457,0.49789383826273076,0.5405869668314843,1.110697422236662,0.9687830687830687,0.452665459898443,0.0,0.9618181818181818,50,1164,6634,772032,no_split,wide,individual,1,0.4887509346008301
1,1.0,0.46234481593193116,0.3628983489957349,0.3898279167304534,0.40976208312741424,0.4271758081944356,0.44553922479579255,0.4675137623817705,0.49344148273938304,0.5293358316082569,0.5805408963885165,1.055029488707662,0.9547027027027027,0.452665459898443,0.0,0.9618181818181818,50,1164,6634,772032,no_split,wide,individual,1,0.4887509346008301
0,0.0,0.45668105416810806,0.37297494534543757,0.39419351333245123,0.4125397034438969,0.4294433181585941,0.4453592352264387,0.4631947172234296,0.4839059489068422,0.5102651935702536,0.553191163091338,1.2134197139633145,0.9822916666666667,0.46173343313013304,0.0,0.9683028720626632,50,1164,6844,772032,no_split,wide,individual,1,0.4985842704772949
1,1.0,0.46681226433803247,0.38588629272510033,0.4085300904468606,0.42603031989746415,0.44216457687895033,0.4577780354641725,0.47543509946350665,0.4951806575602358,0.5185641958958768,0.5568129371285264,0.9757694648097277,0.954240837696335,0.46173343313013304,0.0,0.9683028720626632,50,1164,6844,772032,no_split,wide,individual,1,0.4985842704772949
0,0.0,0.44214343931685557,0.3498167974087464,0.37278689117035585,0.39185942396621415,0.40880571891901146,0.42602474036584115,0.4442798680504258,0.4662112536828741,0.49842021579585943,0.5542930074637271,1.4053204564143142,0.9850526315789474,0.4603945568634962,0.0,0.9562303664921465,50,1164,7624,772032,no_split,wide,individual,1,0.49138760566711426
1,1.0,0.47845555860235917,0.37058158936695407,0.39925256806720083,0.4234085662979744,0.44471251687535124,0.4668252727199853,0.48957236280939675,0.515929342062367,0.5496162556945411,0.6013586222955344,1.0356361546875135,0.9277083333333334,0.4603945568634962,0.0,0.9562303664921465,50,1164,7624,772032,no_split,wide,individual,1,0.49138760566711426
0,0.0,0.411454045019034,0.3333481252133649,0.3527370171544303,0.3682529198864483,0.3821779851785406,0.39714147651878917,0.413640671259426,0.4333093856780431,0.4618702059429199,0.5076175059531511,1.0198143194547935,0.9672916666666667,0.41807586340356323,0.0,0.9584816753926702,50,1164,7756,772032,no_split,wide,individual,1,0.49834156036376953
1,1.0,0.4247673851395086,0.33692463299274933,0.35808483646394185,0.375567005647612,0.39208866168987594,0.40951050244480863,0.42841395886687866,0.45191420944592237,0.48196956693864823,0.5320178918337054,1.0786544960532114,0.9495789473684211,0.41807586340356323,0.0,0.9584816753926702,50,1164,7756,772032,no_split,wide,individual,1,0.49834156036376953
0,0.0,0.42022244155922256,0.32684481664878273,0.3511534635078684,0.3714710236671201,0.389163363398718,0.40703426685898036,0.4261564623355528,0.45022593417653245,0.4799285943278286,0.527425345603911,1.0845433436980811,0.9736170212765958,0.4310626636428056,0.0,0.9553351206434316,50,1164,7768,772032,no_split,wide,individual,1,0.4969651699066162
1,1.0,0.442078673111528,0.34021346145466497,0.36714989725762276,0.38960344588966,0.40978897476486303,0.4294223069492533,0.45040158001763037,0.47636254475525086,0.5089203804253964,0.560962271653571,1.1612726584532342,0.9367567567567567,0.4310626636428056,0.0,0.9553351206434316,50,1164,7768,772032,no_split,wide,individual,1,0.4969651699066162
0,0.0,0.40708607400564745,0.3155703675126849,0.3380938027428657,0.3555244427401843,0.37269891597754345,0.3894177115236015,0.4081808946604027,0.4314155259861501,0.4639502738404928,0.5201479987769922,1.1814037826157393,0.9483769633507854,0.4126481490447908,0.0,0.9364397905759162,50,1164,7807,772032,no_split,wide,individual,1,0.49997735023498535
1,1.0,0.41821022408393416,0.3225599132681005,0.3472035911985999,0.3662597317734993,0.3846619679049494,0.4031721666647731,0.42404330680532576,0.44745374502541496,0.4785979261797364,0.5312717580818451,1.182981385121696,0.9245026178010471,0.4126481490447908,0.0,0.9364397905759162,50,1164,7807,772032,no_split,wide,individual,1,0.49997735023498535
0,0.0,0.40043447243417385,0.3234073511936461,0.34070515685677705,0.35522894764698176,0.369348501643647,0.38372448840267437,0.4013233863266113,0.4223492933878549,0.4493566438850306,0.49583897994816534,1.0275716959173447,0.9758333333333333,0.4063888943519922,0.0,0.9638320209973753,50,1164,7813,772032,no_split,wide,individual,1,0.49893999099731445
1,1.0,0.4124378309034268,0.3271513841340099,0.34669995120152836,0.36348779945610876,0.37931385212847296,0.39598255921746217,0.41510391462535784,0.4389171058660486,0.4691089156374871,0.5167160877142508,0.958913375997962,0.9516402116402116,0.4063888943519922,0.0,0.9638320209973753,50,1164,7813,772032,no_split,wide,individual,1,0.49893999099731445
0,0.0,0.41662956996753114,0.35390316828363133,0.37049810720919746,0.38437051144776324,0.3971233199140576,0.4095365954914888,0.42292468303979097,0.43846741453001636,0.45786906184003207,0.48752281809835146,0.7984301311202532,0.9838743455497382,0.42058670797016046,0.0,0.9802094240837697,50,1164,7828,772032,no_split,wide,individual,1,0.503974199295044
1,1.0,0.4245438459727897,0.35553353103353386,0.3737151389498168,0.38825453643778063,0.40104620528886314,0.41467875177124525,0.4298965843867191,0.4477124993783847,0.46963254259375303,0.5058624878924994,0.8031054286223713,0.976544502617801,0.42058670797016046,0.0,0.9802094240837697,50,1164,7828,772032,no_split,wide,individual,1,0.503974199295044
0,0.0,0.5546838878048954,0.40535878882076615,0.4357544739941566,0.4620772164511153,0.4912781822036395,0.521715192351075,0.5562014494279556,0.5977820954039118,0.6524849537680566,0.7470884869885388,1.460365250791867,0.9686772486772487,0.5629540912592692,0.0,0.9598404255319148,50,1164,7840,772032,no_split,wide,individual,1,0.4975321292877197
1,1.0,0.5713127460874866,0.4145948637292605,0.44931211083605815,0.47769698589789905,0.5093079381289037,0.5404225321869139,0.5776667199396889,0.6199146110251631,0.6778707717042617,0.7661985426296247,1.5636926457652174,0.9509090909090909,0.5629540912592692,0.0,0.9598404255319148,50,1164,7840,772032,no_split,wide,individual,1,0.4975321292877197
0,0.0,0.4632082127650335,0.37239266939825527,0.39433400289222204,0.41339285231994316,0.4319628831574093,0.4503848388864931,0.469795114056275,0.4939890022248581,0.52416620543756,0.5703427018318877,0.93575033311014,0.9971727748691099,0.47100980926558544,0.0,0.9928795811518325,50,1164,7924,772032,no_split,wide,individual,1,0.503603458404541
1,1.0,0.47881140576613745,0.38936851586821825,0.41372212611337866,0.4328478642801412,0.45063020230522555,0.46869861646862987,0.48726050508459734,0.5100065752812486,0.5388935743136328,0.5823139371978344,0.9943258064710769,0.988586387434555,0.47100980926558544,0.0,0.9928795811518325,50,1164,7924,772032,no_split,wide,individual,1,0.503603458404541
0,0.0,0.450614480661851,0.3739944043892053,0.3942454548555007,0.41034382172799183,0.42602009288888826,0.44048243252159414,0.45715754929707914,0.47665266709971305,0.5009449818036795,0.5403808345801031,0.88181801778713,0.9894179894179894,0.45950465531225865,0.0,0.9842440318302387,50,1164,7939,772032,no_split,wide,individual,1,0.49901294708251953
1,1.0,0.46844211812570025,0.3774063184905806,0.4014207286869717,0.4203554044680643,0.4382991677474671,0.4558724487050151,0.47617575135193774,0.5004093528330581,0.5291545705316544,0.5742221752511685,0.9289204766528238,0.9790425531914894,0.45950465531225865,0.0,0.9842440318302387,50,1164,7939,772032,no_split,wide,individual,1,0.49901294708251953
0,0.0,0.4505796049841888,0.34832436067659855,0.37427919285147226,0.3929181935289027,0.4115891079527191,0.4321087348393291,0.453109291435894,0.4794267991675073,0.5141679294156692,0.573627462518233,1.4816889519069882,0.9568539325842697,0.4593857968781787,0.0,0.9333333333333333,50,1164,8026,772032,no_split,wide,individual,1,0.4898247718811035
1,1.0,0.4678587815113149,0.3581390107227715,0.3862187993310065,0.4089701909622044,0.42975268802444233,0.45176176308121874,0.47568030645272025,0.5053243968519723,0.539809444349696,0.5949955164665542,1.3229837786231646,0.9107027027027027,0.4593857968781787,0.0,0.9333333333333333,50,1164,8026,772032,no_split,wide,individual,1,0.4898247718811035
0,0.0,0.47313435420708677,0.37110087210255105,0.3947682388162496,0.4145230835088511,0.4327659267733789,0.4545522559464252,0.47696437460270713,0.5044276773303151,0.5407424330865066,0.5995644028880666,1.3182103761068271,0.9771578947368421,0.475842705414641,0.0,0.9703684210526315,50,1164,808,772032,no_split,wide,individual,1,0.4907572269439697
1,1.0,0.4785510566221952,0.3760923731990927,0.40306718738947234,0.4236453096713597,0.4434318080702218,0.4634280577716533,0.484562240174798,0.510703755458133,0.5450741339065857,0.5970061506207739,1.0911088879229285,0.9635789473684211,0.475842705414641,0.0,0.9703684210526315,50,1164,808,772032,no_split,wide,individual,1,0.4907572269439697
0,0.0,0.44136541548583563,0.3390009426218722,0.3670503926653831,0.3882363458229549,0.4074552904881917,0.42751677578273584,0.4482638738239739,0.47229767802277334,0.5036877478084482,0.5590628001132316,1.1257929195685246,0.9268062827225131,0.4468070032379287,0.0,0.922088772845953,50,1164,8311,772032,no_split,wide,individual,1,0.4911801815032959
1,1.0,0.4522202493871465,0.3452069046220448,0.3716223090963215,0.3926482557597911,0.4121643096634567,0.4334118902447897,0.45615777384780076,0.4857727960765389,0.5212176504255471,0.583637116010358,1.088195482490473,0.9173958333333333,0.4468070032379287,0.0,0.922088772845953,50,1164,8311,772032,no_split,wide,individual,1,0.4911801815032959
0,0.0,0.45690701016068214,0.3738857725592915,0.39421159860720717,0.4108828332100121,0.4274150910765358,0.4430928208340334,0.46074960308755153,0.4815813671002816,0.5084639923688395,0.5578466491818187,0.9260926876171617,0.9683333333333334,0.46424026461547946,0.0,0.9535978835978836,50,1164,833,772032,no_split,wide,individual,1,0.4879589080810547
1,1.0,0.4718100756655928,0.3811560995478987,0.40477670508998537,0.4229643628106829,0.4403488814791996,0.4584609869027425,0.4785656640032689,0.5003668711847509,0.5302708217403002,0.5772757787568877,1.2772700082815893,0.9383870967741935,0.46424026461547946,0.0,0.9535978835978836,50,1164,833,772032,no_split,wide,individual,1,0.4879589080810547
0,0.0,0.5546590422685794,0.387411683157699,0.42202678314147213,0.4530383924787839,0.48272491471851514,0.5135590681286342,0.5505669193361467,0.5975264896705311,0.6624836208670875,0.7789354418537863,1.556261906707956,0.9483695652173914,0.5647434934260173,0.0,0.9334054054054054,50,1164,837,772032,no_split,wide,individual,1,0.48946642875671387
1,1.0,0.5747195096247731,0.3965072456589435,0.4366747878572759,0.4697885899256904,0.5041933234266813,0.5395435381079865,0.5796058342176371,0.6289205806928554,0.69085898973286,0.7998549704482674,1.5520799682918054,0.9186021505376344,0.5647434934260173,0.0,0.9334054054054054,50,1164,837,772032,no_split,wide,individual,1,0.48946642875671387
0,0.0,0.39067893715426066,0.3209382981495442,0.3399313254409953,0.3548064466638172,0.3680309639100786,0.38210440818007724,0.3958228413395201,0.4125513507490319,0.43521296280713934,0.47272459155093294,0.787722283643722,0.9830366492146597,0.39903666968104545,0.0,0.9767894736842105,50,1164,8446,772032,no_split,wide,individual,1,0.491504430770874
1,1.0,0.4074828438218702,0.3282660251279528,0.3489765358855138,0.3656307813295548,0.38141057687038726,0.3971152547357599,0.41432422346038705,0.43361149368513496,0.45995484623112104,0.5008140490672213,0.9102818819081737,0.9704761904761905,0.39903666968104545,0.0,0.9767894736842105,50,1164,8446,772032,no_split,wide,individual,1,0.491504430770874
0,0.0,0.42070793521373345,0.3438337928695613,0.3637475007628541,0.37979843478962705,0.394679430194012,0.4104755663453953,0.425728713385213,0.44453273082171074,0.46862209713308234,0.5101873410086855,1.0190609505852626,0.9641269841269842,0.4283927118149015,0.0,0.9559574468085107,50,1164,845,772032,no_split,wide,individual,1,0.49458789825439453
1,1.0,0.43615967854014626,0.3450242179420341,0.36735065641469045,0.38509732131054114,0.4012448632738723,0.4193196469194481,0.43963200902119964,0.46359063785344923,0.49727467733423164,0.5499921852912878,1.0145107104553923,0.9477005347593583,0.4283927118149015,0.0,0.9559574468085107,50,1164,845,772032,no_split,wide,individual,1,0.49458789825439453
0,0.0,0.48473558870248556,0.3900230096624641,0.4157636679934923,0.43527327733584387,0.4527962090302737,0.47092778557325865,0.4905735372261059,0.5136682679585797,0.5446902860517056,0.5936008782881768,1.1532522201493787,0.9608376963350785,0.4889985247905532,0.0,0.9532631578947368,50,1164,8521,772032,no_split,wide,individual,1,0.4908432960510254
1,1.0,0.4933065713134152,0.3920128847220913,0.418603708678319,0.43906742024894496,0.4581114205328389,0.47794301741586037,0.49887868347789344,0.5241226791821094,0.5556257906435634,0.6116312763900562,1.164553367100897,0.9456084656084656,0.4889985247905532,0.0,0.9532631578947368,50,1164,8521,772032,no_split,wide,individual,1,0.4908432960510254
0,0.0,0.563102301802979,0.42295818072852,0.4551606636323198,0.4833634338841443,0.5095612291386963,0.5381032616786836,0.5692586360066224,0.6053910590506099,0.6536868073113876,0.7375939808631692,1.5567997973384582,0.9783695652173913,0.5653127310445311,0.0,0.9771505376344086,50,1164,8704,772032,no_split,wide,individual,1,0.48337364196777344
1,1.0,0.5674761298766885,0.42897989205926845,0.46178047376872133,0.4882558060944146,0.514989649605482,0.5432818906366784,0.5739394802601024,0.6103591570917467,0.6593240759506651,0.7348598393863761,1.5202918999181987,0.9759574468085106,0.5653127310445311,0.0,0.9771505376344086,50,1164,8704,772032,no_split,wide,individual,1,0.48337364196777344
0,0.0,0.44824586794083265,0.36212128526130366,0.38353682020625585,0.40214185930462837,0.4191996866060379,0.43544623621188094,0.45457957324880405,0.47650905423753265,0.5040767887271006,0.549068918784713,0.9297807017882945,0.9926086956521739,0.45644249919167534,0.0,0.9886027397260274,50,1164,8755,772032,no_split,wide,individual,1,0.4881598949432373
1,1.0,0.4647749862091066,0.3673377841452544,0.39047127639388995,0.41140897570270546,0.4319592292943079,0.45247597058472355,0.47482615895552627,0.499398763606423,0.5300152907142843,0.5786409040400512,1.077376022073929,0.9845303867403314,0.45644249919167534,0.0,0.9886027397260274,50,1164,8755,772032,no_split,wide,individual,1,0.4881598949432373
0,0.0,0.4492793598270481,0.3579824309670952,0.3820283260049319,0.4006844268817006,0.41827833779528656,0.4358775644311339,0.45476624350034567,0.4768256486021756,0.5084596142550738,0.5573687553357227,1.0292659210304886,0.9610416666666667,0.4531356011918893,0.0,0.9613541666666666,50,1164,8785,772032,no_split,wide,individual,1,0.48672914505004883
1,1.0,0.4569918425567303,0.3626884475922899,0.38584633432427423,0.405458493646388,0.4231132382468449,0.4418833907124299,0.4619275986823346,0.48635130147275757,0.517271712867149,0.568898224847377,1.244012583704881,0.9616666666666667,0.4531356011918893,0.0,0.9613541666666666,50,1164,8785,772032,no_split,wide,individual,1,0.48672914505004883
0,0.0,0.41158811394968403,0.3261197142381305,0.3478900956916887,0.3651921785985619,0.38075692381601767,0.39695063409153214,0.4150833780132346,0.4359099502619316,0.46551752967752946,0.5162491192365241,0.9990723586583461,0.977037037037037,0.4231073429564327,0.0,0.9658885941644563,50,1164,8788,772032,no_split,wide,individual,1,0.4872090816497803
1,1.0,0.4346878444578981,0.3308137949570901,0.3570392729408485,0.377122142788268,0.39678150266971207,0.41767565180045774,0.4420572142866445,0.46936584857410313,0.5060673901641164,0.5603432759513254,1.0266891451908209,0.9546808510638298,0.4231073429564327,0.0,0.9658885941644563,50,1164,8788,772032,no_split,wide,individual,1,0.4872090816497803
0,0.0,0.46542100410523546,0.3598509768878394,0.38373768964121074,0.4034991342111982,0.4225323132447702,0.4428476371529213,0.46556209202306037,0.49320199334649883,0.5295510650092036,0.5954670101599052,1.295901069488051,0.9703703703703703,0.4798923926134052,0.0,0.9585106382978723,50,1164,916,772032,no_split,wide,individual,1,0.4829678535461426
1,1.0,0.49451855533021855,0.36163782587592136,0.3904229890997765,0.4160336146808058,0.44125863543730626,0.46847131927536323,0.49982283221146206,0.5367537661666495,0.5851305906209623,0.6630068405018569,1.4632634370222497,0.946524064171123,0.4798923926134052,0.0,0.9585106382978723,50,1164,916,772032,no_split,wide,individual,1,0.4829678535461426
0,0.0,0.41107472417019963,0.33242009588320126,0.3518798746294077,0.3688711736229163,0.38386336110229125,0.3983485075115034,0.41429139866479225,0.4335045378809416,0.4611949115592333,0.5030578378022489,0.9632999787687507,0.9683157894736842,0.4202187283268801,0.0,0.9541732283464567,50,1164,985,772032,no_split,wide,individual,1,0.4895625114440918
1,1.0,0.429314858116248,0.33979503566159497,0.361243678309416,0.37890653217821857,0.3971334742765765,0.4146344595623099,0.4342228043824867,0.45732640024907245,0.48945494042753307,0.5377652385008846,1.061812358832902,0.9401047120418848,0.4202187283268801,0.0,0.9541732283464567,50,1164,985,772032,no_split,wide,individual,1,0.4895625114440918
0,0.0,0.4445444231941502,0.35740930122522824,0.37773760620746555,0.3940200949609238,0.4103861464174098,0.42748009613037846,0.4461604484740799,0.4702085295165679,0.49952392058282946,0.5516775335610943,1.383667445969644,0.9838048780487805,0.4638338996719957,0.0,0.9679899497487437,50,1164,275,772032,no_split,narrow,individual,1,0.4828982353210449
1,1.0,0.4843227218375827,0.3687143481480952,0.3968878219200836,0.4221410430985492,0.4449772856122549,0.4690512533493335,0.49541074912315947,0.5257680657435229,0.562052224336144,0.6194050106894659,1.1711128332720853,0.9511917098445596,0.4638338996719957,0.0,0.9679899497487437,50,1164,275,772032,no_split,narrow,individual,1,0.4828982353210449
0,0.0,0.4692272959571829,0.3753689958473631,0.39788863805448743,0.41631170771338927,0.4344035750425254,0.45250011380176447,0.47296798062109785,0.49855447962010446,0.5307956479576527,0.5869501623134422,1.1301481358088494,0.9764761904761905,0.47517850936970357,0.0,0.9645959595959596,50,1164,808,772032,no_split,narrow,individual,1,0.48164820671081543
1,1.0,0.4818976212870657,0.388970833397299,0.41375505315406025,0.43279429884388465,0.4503983297032723,0.4689085460969883,0.48946771686979684,0.5130782341295987,0.5429508038598585,0.5898568946776132,1.0537485103116364,0.9511827956989247,0.47517850936970357,0.0,0.9645959595959596,50,1164,808,772032,no_split,narrow,individual,1,0.48164820671081543
0,0.0,0.45459358826782453,0.372936990857868,0.3954950604323433,0.4130496600967556,0.42923439701574295,0.4440870350839309,0.4607119845523316,0.4791423061114374,0.5035413040500846,0.5450923713157955,1.105850335703071,0.9683,0.4671325128860736,0.0,0.9340266666666667,50,1164,833,772032,no_split,narrow,individual,1,0.4814178943634033
1,1.0,0.4814627124497868,0.3848745980617322,0.40985499278400134,0.43115297092705557,0.45058644022885463,0.4697398120904839,0.4911082504666361,0.5150293411407373,0.5470397627796458,0.5951827171168356,1.0405097908105083,0.8948571428571429,0.4671325128860736,0.0,0.9340266666666667,50,1164,833,772032,no_split,narrow,individual,1,0.4814178943634033
0,0.0,0.5762915057201873,0.3900120250212665,0.42885950934534156,0.46089248010118394,0.49532329799847796,0.5287820074893151,0.5706091867339584,0.6239360886782918,0.6993942309192868,0.8265699994154309,1.5954374974219718,0.9367539267015706,0.5915415731883434,0.0,0.9152659574468085,50,1164,837,772032,no_split,narrow,individual,1,0.4832038879394531
1,1.0,0.6072862374392508,0.4024621049057741,0.44613713153818935,0.48475376342961174,0.5240347672991382,0.567042159374318,0.6160016818077325,0.6731819829794027,0.7470598131317169,0.8665487557937532,1.6503878573809507,0.8930810810810811,0.5915415731883434,0.0,0.9152659574468085,50,1164,837,772032,no_split,narrow,individual,1,0.4832038879394531
0,0.0,0.4230746015005838,0.3478790353475151,0.36908920822950536,0.385281803313356,0.3992486896215405,0.41374896387220766,0.42874192459684085,0.44568924670251026,0.4677139273818964,0.5083361313448295,0.8872259701699625,0.9701041666666667,0.43358177985296886,0.0,0.9411229946524065,50,1164,845,772032,no_split,narrow,individual,1,0.4775216579437256
1,1.0,0.4446662756972432,0.35903211236120613,0.381900504038017,0.4005186249124027,0.4176767244476397,0.4340885410581943,0.4517190298493584,0.47428642374984115,0.5002861310035481,0.5457962303483551,0.924456442188635,0.9105494505494506,0.43358177985296886,0.0,0.9411229946524065,50,1164,845,772032,no_split,narrow,individual,1,0.4775216579437256
0,0.0,0.4677739505193214,0.3596609933249523,0.3826176779815269,0.4017602238437597,0.4211629901746178,0.44029508101508946,0.46225624863494863,0.492123440290329,0.5361352308387652,0.6114826316143491,1.43509376729019,0.9768715083798882,0.48746598554618964,0.0,0.9579781420765028,50,1164,916,772032,no_split,narrow,individual,1,0.4767191410064697
1,1.0,0.5063155805719084,0.37568894319479396,0.4066668031133448,0.43394839131039054,0.4608781226095761,0.4875735887348822,0.516659043091601,0.5484917524858693,0.5899022166386393,0.660484354881878,1.2663903920517632,0.9398930481283423,0.48746598554618964,0.0,0.9579781420765028,50,1164,916,772032,no_split,narrow,individual,1,0.4767191410064697
0,0.0,0.4158435028855804,0.34201510486384157,0.3613967651669664,0.3765148567795806,0.39088761801916105,0.4047659593986312,0.420469332144168,0.438241250577528,0.46108056410524006,0.5006812612721092,1.080660858790229,0.9653107344632769,0.4293279682907453,0.0,0.9377777777777778,50,1164,985,772032,no_split,narrow,individual,1,0.47896385192871094
1,1.0,0.4417589598361316,0.3494723808803369,0.3707269574768901,0.389841369757703,0.4087498550077743,0.42800948157872076,0.4487132159982472,0.4727045252180142,0.504193660169594,0.5552466490462249,0.939808084149593,0.9123958333333333,0.4293279682907453,0.0,0.9377777777777778,50,1164,985,772032,no_split,narrow,individual,1,0.47896385192871094
0,0.0,0.4114278071337302,0.33979837123068374,0.35742100587805303,0.3711567698170232,0.3843448289471836,0.3976502735468007,0.41277796708668696,0.4304519348828328,0.4542975042274299,0.4990697321583711,0.9371276780552305,0.9782954545454545,0.4300731019412947,0.0,0.9233684210526316,50,1164,1108,772032,no_split,narrow,individual,1,0.48194313049316406
1,1.0,0.44615923863801715,0.35465979354948607,0.3787403903354806,0.3977041500264851,0.4168925692411447,0.43487694950695444,0.455815851323716,0.4784248364260517,0.5066978244810524,0.5511183910612402,0.9329029569916757,0.8759803921568627,0.4300731019412947,0.0,0.9233684210526316,50,1164,1108,772032,no_split,narrow,individual,1,0.48194313049316406
0,0.0,0.4385000608939107,0.3480616420776591,0.37247154148331507,0.3913072020724395,0.40831363899059814,0.424556354970078,0.4424852793851938,0.46347938993607707,0.49297363287994717,0.5460835408554024,1.0091721349706335,0.954572864321608,0.4511637519472378,0.0,0.9063390663390664,50,1164,1507,772032,no_split,narrow,individual,1,0.4777219295501709
1,1.0,0.46327949482998837,0.36326538657526564,0.3903101282003613,0.4120164918629416,0.4323193333113814,0.45191706356440736,0.47206495313015123,0.4976707454884033,0.5280593075141927,0.5782322386668718,1.138480936562375,0.8601923076923077,0.4511637519472378,0.0,0.9063390663390664,50,1164,1507,772032,no_split,narrow,individual,1,0.4777219295501709
0,0.0,0.4508304974000495,0.36194268416060793,0.3858397990332315,0.4044225998515673,0.42089416140805186,0.4380494691011765,0.4577712754706056,0.47909072927817514,0.5077561126509875,0.5524933322036143,1.2775949503543162,0.9746236559139785,0.4610655389658662,0.0,0.9644502617801047,50,1164,1538,772032,no_split,narrow,individual,1,0.47417354583740234
1,1.0,0.4707783845334269,0.3668436138087517,0.39377142286278966,0.4155529665221126,0.43549748823211637,0.45646865482733767,0.4788206738365043,0.5045890778175727,0.5374327846051059,0.5914087210701158,1.1455010858157713,0.9547959183673469,0.4610655389658662,0.0,0.9644502617801047,50,1164,1538,772032,no_split,narrow,individual,1,0.47417354583740234
0,0.0,0.4661858124692701,0.3721608231550758,0.39420109223432775,0.4105004669350739,0.4273091567936121,0.4439681148574376,0.4640853905670025,0.48957200866616446,0.5252324273488843,0.590670396788072,1.0945170071827524,0.9943617021276596,0.4906714447108873,0.0,0.9625136612021858,50,1164,1582,772032,no_split,narrow,individual,1,0.4724714756011963
1,1.0,0.5165326742694493,0.40468166018963575,0.4376833051271679,0.46338661082770494,0.4855334013223185,0.5068875344714916,0.5292643057761032,0.553536099258682,0.5878664627526757,0.6368791650656357,1.257235606148652,0.928876404494382,0.4906714447108873,0.0,0.9625136612021858,50,1164,1582,772032,no_split,narrow,individual,1,0.4724714756011963
0,0.0,0.4451100750896891,0.3514537979062976,0.3721784454251516,0.3888508603702014,0.4038692838412119,0.4204582956726411,0.4393686458464898,0.46403198143202723,0.49929985174772984,0.5723265399996394,1.3158209888308916,0.9835175879396985,0.4696060647281841,0.0,0.9242606516290727,50,1164,1583,772032,no_split,narrow,individual,1,0.4752962589263916
1,1.0,0.49397957441848683,0.37859372960679183,0.41055940233583915,0.4364891205295258,0.4594641564822143,0.4822938143552349,0.5058398205257213,0.5326521624767282,0.5681870574836797,0.6218234582227405,1.3907783093109911,0.8653,0.4696060647281841,0.0,0.9242606516290727,50,1164,1583,772032,no_split,narrow,individual,1,0.4752962589263916
0,0.0,0.5571093384383603,0.40855166370049945,0.4363971347131008,0.46101434874436326,0.486774172059046,0.5141726088930516,0.5502666063788137,0.5946284174516786,0.6578790955012115,0.7648532894749419,1.5531238795203086,0.9575956284153005,0.5666361206912924,0.0,0.9343956043956044,50,1164,1597,772032,no_split,narrow,individual,1,0.4697268009185791
1,1.0,0.5762681712564115,0.4255476825632384,0.4600230334441556,0.48967047892672355,0.517944646014509,0.5483914038462674,0.5813089554952563,0.6217093325831989,0.6749501862570848,0.7574174412828751,1.5552920934857049,0.910939226519337,0.5666361206912924,0.0,0.9343956043956044,50,1164,1597,772032,no_split,narrow,individual,1,0.4697268009185791
0,0.0,0.41605557209777044,0.3338893320961178,0.3545270506174793,0.3716558097547581,0.38628377417968013,0.40217904726466874,0.4192373834295942,0.43938715759513786,0.46592132894502647,0.5111549795420002,1.088496815481993,0.9855737704918033,0.43957887430426074,0.0,0.9626666666666667,50,1164,1601,772032,no_split,narrow,individual,1,0.4736671447753906
1,1.0,0.46199952171982167,0.34535317291723966,0.37425056019799025,0.3988893663054363,0.42403812824121845,0.4483088592671879,0.4745216708490524,0.5050004666264708,0.5408890428625631,0.5947588997422054,1.2526379290612006,0.9408333333333333,0.43957887430426074,0.0,0.9626666666666667,50,1164,1601,772032,no_split,narrow,individual,1,0.4736671447753906
0,0.0,0.4885163897946948,0.36540659004967263,0.39281483599804684,0.4156980443796866,0.4369862390989466,0.460665598923231,0.4863268835039201,0.5196310187654347,0.5667757765964555,0.6498465923675363,1.5269170655802564,0.9807920792079208,0.5083604940712925,0.0,0.9466129032258065,50,1164,1614,772032,no_split,narrow,individual,1,0.4691596031188965
1,1.0,0.5319399591528967,0.39449136263937185,0.432061046016518,0.46308214789301644,0.48902879472349725,0.5163439292781029,0.543737332183265,0.5778539881809126,0.6200380092342213,0.6872810456579497,1.4108465727606059,0.906,0.5083604940712925,0.0,0.9466129032258065,50,1164,1614,772032,no_split,narrow,individual,1,0.4691596031188965
0,0.0,0.4733773387236832,0.37789826218936645,0.40409808194646907,0.424370018089933,0.44275870192858224,0.46089290838798813,0.48100677277538584,0.5050696971027631,0.5342591931408164,0.5824359217794727,1.1024130638550491,0.9862983425414364,0.48989920328913383,0.0,0.9716842105263158,50,1164,1638,772032,no_split,narrow,individual,1,0.4757401943206787
1,1.0,0.5049266278436392,0.39486851924309524,0.42609251301823675,0.45039144883941684,0.4734046682822329,0.4948698940040256,0.5184656890955165,0.5449238957518773,0.5785983344527845,0.6261144117897456,1.1565717675342764,0.9583919597989949,0.48989920328913383,0.0,0.9716842105263158,50,1164,1638,772032,no_split,narrow,individual,1,0.4757401943206787
0,0.0,0.3999012747487237,0.3264769077011096,0.34584124485249107,0.3605890600228311,0.3736228959281075,0.3873378972814715,0.40171949033628956,0.4202104595064794,0.444500644205614,0.48551612683269,0.9714419109175099,0.9623469387755103,0.4134225972966149,0.0,0.9179514824797844,50,1164,1657,772032,no_split,narrow,individual,1,0.4798750877380371
1,1.0,0.42856647855025304,0.33569990455928544,0.35838734706053516,0.37674028631296136,0.3949613263929469,0.41407333010524416,0.434016217515287,0.458970731564427,0.49041148865055917,0.5425207297426448,1.0012603806039857,0.8682285714285715,0.4134225972966149,0.0,0.9179514824797844,50,1164,1657,772032,no_split,narrow,individual,1,0.4798750877380371
0,0.0,0.4622834127613016,0.3756759017989836,0.39729405812195556,0.41464717932095074,0.4291315914614405,0.4451892115506617,0.4633387834900214,0.4861029130315122,0.5174313306204329,0.5690192191566016,1.177990353975361,0.9866666666666667,0.4796615706761313,0.0,0.9696954314720813,50,1164,1663,772032,no_split,narrow,individual,1,0.4829277992248535
1,1.0,0.49669041888413046,0.3930036272054259,0.42116525727252097,0.44409043942174553,0.46472291376647334,0.4853280825910875,0.5078261533035454,0.533595608938405,0.563767951148825,0.6133133155559197,1.1028077068082796,0.9530653266331658,0.4796615706761313,0.0,0.9696954314720813,50,1164,1663,772032,no_split,narrow,individual,1,0.4829277992248535
0,0.0,0.49980292460055764,0.39338374093248935,0.42035030815161184,0.44144190116928494,0.46131534177684047,0.4811145666539396,0.5033277449657511,0.5302604585745634,0.564389446090094,0.6253316754577779,1.373932643084696,0.970828729281768,0.5117638224579678,0.0,0.953646408839779,50,1164,1761,772032,no_split,narrow,individual,1,0.4824802875518799
1,1.0,0.5237247203153778,0.4036480127713715,0.4342455739523569,0.45921184558190337,0.4818404384394035,0.5058610994104666,0.5328483805039749,0.5641616711323038,0.6059492946088525,0.6653258621378254,1.3193394188130738,0.93646408839779,0.5117638224579678,0.0,0.953646408839779,50,1164,1761,772032,no_split,narrow,individual,1,0.4824802875518799
0,0.0,0.4547303303193283,0.3554794928272918,0.3806968738614644,0.40008782931940934,0.4184109473027716,0.4369609716140652,0.45818312174973547,0.4819930131235189,0.5153609468839513,0.5714573894295378,1.1230864888812533,0.9557608695652174,0.46801319520303414,0.0,0.9351891891891891,50,1164,1768,772032,no_split,narrow,individual,1,0.4823787212371826
1,1.0,0.48115323358261414,0.3620391712270679,0.3908816677561832,0.4136061834395027,0.4359126745593617,0.4608767327996627,0.48700698067230197,0.5195242893089054,0.5612901495224422,0.6283796558662721,1.1820632964745577,0.9148387096774193,0.46801319520303414,0.0,0.9351891891891891,50,1164,1768,772032,no_split,narrow,individual,1,0.4823787212371826
0,0.0,0.3791735550937772,0.3017564932752742,0.3232043353132906,0.3397933650444677,0.35477006211498063,0.368915604179299,0.3845394011367144,0.4023637723002625,0.42537838582300014,0.4651189446688749,0.9122733855770195,0.9637988826815642,0.3959414032110023,0.0,0.9216577540106952,50,1164,1813,772032,no_split,narrow,individual,1,0.48516345024108887
1,1.0,0.4113334278929679,0.3135312345087006,0.3388421808709227,0.35924877049396525,0.3789609239397723,0.39879633973809614,0.42096838429057065,0.4451121760992653,0.47542137700773696,0.524014820535407,1.2798584772343007,0.8829743589743589,0.3959414032110023,0.0,0.9216577540106952,50,1164,1813,772032,no_split,narrow,individual,1,0.48516345024108887
0,0.0,0.40124321626388976,0.31401324272355075,0.33368044484372716,0.3493672476065571,0.36524308656910254,0.38099810716721205,0.3999273788649887,0.4234319756390737,0.45592957713595683,0.5150608258432368,1.3234840457952788,0.9828292682926829,0.4203466160961787,0.0,0.9565346534653465,50,1164,1821,772032,no_split,narrow,individual,1,0.4862401485443115
1,1.0,0.44002599783295887,0.33083266620056506,0.3592799345713238,0.38174650835753393,0.40471964643742686,0.42760676957926824,0.45059066848880774,0.4777165780718798,0.5120249572228165,0.564462440513878,1.0087386534355998,0.9294472361809045,0.4203466160961787,0.0,0.9565346534653465,50,1164,1821,772032,no_split,narrow,individual,1,0.4862401485443115
0,0.0,0.3972705572891853,0.3160326263445181,0.3350258620806861,0.35034952269482134,0.36523873108868105,0.3815876998816704,0.3995340728369556,0.4205609197172452,0.45024528345186643,0.4970141250699271,0.977949935503441,0.9806629834254144,0.41002664741238715,0.0,0.9667021276595744,50,1164,3286,772032,no_split,narrow,individual,1,0.490567684173584
1,1.0,0.4218669156805899,0.3286313927143936,0.3511890350104436,0.37028723159886484,0.3894835663210253,0.40780471685257824,0.4288377452413567,0.45185877601885494,0.4833940654800146,0.531045204842899,0.9831335051933086,0.9537435897435897,0.41002664741238715,0.0,0.9667021276595744,50,1164,3286,772032,no_split,narrow,individual,1,0.490567684173584
0,0.0,0.476896517793538,0.37535650157111816,0.40040383803031065,0.4203783092775671,0.4395882074512587,0.4585321699789303,0.4796946319994021,0.506154587005723,0.5396384485341272,0.6008085649297703,1.1710190707785464,0.97625,0.49541173058955534,0.0,0.9556593406593407,50,1164,3292,772032,no_split,narrow,individual,1,0.4874699115753174
1,1.0,0.51274512129221,0.39401639768749724,0.424995902745638,0.4499001755403485,0.4731477732322476,0.4987459138764344,0.523870009817672,0.5547246857096833,0.5920752703315404,0.6487889609606858,1.14546337859798,0.9363829787234043,0.49541173058955534,0.0,0.9556593406593407,50,1164,3292,772032,no_split,narrow,individual,1,0.4874699115753174
0,0.0,0.3992976538438527,0.3268719064759105,0.3477310429418262,0.36291443390915845,0.37664960151666654,0.38948684416836576,0.40456541703925425,0.42086061166734884,0.44268539773927024,0.4785520544267831,0.867394042605299,0.9883422459893048,0.4216903160717522,0.0,0.9288311688311688,50,1164,3487,772032,no_split,narrow,individual,1,0.492647647857666
1,1.0,0.44283894150921294,0.3502021927899291,0.37789772348591105,0.39786079291556725,0.41642427111790187,0.4352535019676791,0.4551264294390504,0.476815852030373,0.5037276086636846,0.5426105525262169,0.9096774262211154,0.8726262626262626,0.4216903160717522,0.0,0.9288311688311688,50,1164,3487,772032,no_split,narrow,individual,1,0.492647647857666
0,0.0,0.40920655932667754,0.35205510843087084,0.3685746448544462,0.381342125154673,0.39277996305174034,0.40393302113562124,0.41545476067266673,0.4279441609732368,0.4445615213271189,0.4718463532724105,0.8730776947562111,0.9743283582089552,0.42087188218549226,0.0,0.9373096446700507,50,1164,3580,772032,no_split,narrow,individual,1,0.4988284111022949
1,1.0,0.43302074174311783,0.3611823938190056,0.38245077221275375,0.39773758413401206,0.41228543442904875,0.42625593105597226,0.44030741751555974,0.4583110696805024,0.4797574002165347,0.5136780018360847,0.8763268218108144,0.8987564766839379,0.42087188218549226,0.0,0.9373096446700507,50,1164,3580,772032,no_split,narrow,individual,1,0.4988284111022949
0,0.0,0.484718140528645,0.3758187670454045,0.4022309523839179,0.42225032520530525,0.4414967329299407,0.46069346789987947,0.48349097596313645,0.5119685949768737,0.5506510761801505,0.6194748040509356,1.4745075254420552,0.93,0.4963825858907143,0.0,0.9005524861878453,50,1164,3625,772032,no_split,narrow,individual,1,0.49580836296081543
1,1.0,0.508709783830174,0.3811941811826369,0.4106999224115762,0.43431303359320356,0.45815051268521306,0.4843979687157304,0.5129191136271587,0.5480811200185268,0.5955943935155894,0.6677825572693159,1.467129289515488,0.8694318181818181,0.4963825858907143,0.0,0.9005524861878453,50,1164,3625,772032,no_split,narrow,individual,1,0.49580836296081543
0,0.0,0.52709335272854,0.42562046771852186,0.45487374203185854,0.47612699064817743,0.49670918496785094,0.5159084679645707,0.5372546148080128,0.5605966034695921,0.5898249151154772,0.6407356059873753,1.118207380913057,0.986629213483146,0.5494342695878215,0.0,0.9769105691056911,50,1164,3754,772032,no_split,narrow,individual,1,0.49337244033813477
1,1.0,0.5702546004828586,0.44189672102083255,0.4751094643513664,0.5014020204116522,0.5283183091876766,0.5556473332834087,0.5852449609941537,0.6177832872124007,0.6584010229596726,0.7187502104068122,1.212292251644313,0.9678534031413613,0.5494342695878215,0.0,0.9769105691056911,50,1164,3754,772032,no_split,narrow,individual,1,0.49337244033813477
0,0.0,0.41721610666175674,0.34067207364309693,0.36163158608018714,0.37823357684459114,0.3932070236140885,0.4079273389540432,0.42357667408624294,0.44184846498638397,0.46556256839804205,0.5037794181685973,0.9827262196679167,0.990531914893617,0.4320836395875343,0.0,0.9767357512953367,50,1164,3910,772032,no_split,narrow,individual,1,0.5014851093292236
1,1.0,0.44620028701201003,0.3554512356055667,0.38121337841222125,0.40091974358757454,0.419506332715229,0.4363446513474888,0.45514587631651043,0.47704678742338386,0.5048794751336508,0.5486319529880922,0.9555863527431142,0.9636363636363636,0.4320836395875343,0.0,0.9767357512953367,50,1164,3910,772032,no_split,narrow,individual,1,0.5014851093292236
0,0.0,0.4070887046999356,0.33870711379978047,0.35482585920090365,0.36755329636035694,0.3794053390123492,0.3921805668726593,0.40824819663207734,0.4267402079392732,0.45136184317670613,0.4935470535575657,1.0413870506549316,0.9880662983425414,0.417881633279157,0.0,0.9737894736842105,50,1164,4222,772032,no_split,narrow,individual,1,0.4989943504333496
1,1.0,0.427698317062268,0.34903952584794745,0.36909049378920855,0.38551690332774846,0.40106091789181414,0.4171865446204883,0.4341982648679646,0.45406200804834046,0.47886965135156295,0.5197310650427158,0.9750598071962625,0.9608040201005025,0.417881633279157,0.0,0.9737894736842105,50,1164,4222,772032,no_split,narrow,individual,1,0.4989943504333496
0,0.0,0.46421289473406957,0.3516775656711235,0.38039193042309905,0.4014587880102751,0.4220749894497899,0.4421771702032705,0.46559397731454144,0.4921704093852968,0.5307374494828702,0.6019276605700533,1.4393572518464965,0.9441414141414142,0.47841998195515284,0.0,0.8968765743073048,50,1164,4264,772032,no_split,narrow,individual,1,0.5020763874053955
1,1.0,0.4925556767781403,0.3664141051867669,0.3991249110654473,0.42515223103672267,0.44909735369397336,0.47350930370363065,0.5011245439606863,0.5343968919914904,0.5751473123399722,0.6422157047910914,1.451410110586021,0.8498492462311558,0.47841998195515284,0.0,0.8968765743073048,50,1164,4264,772032,no_split,narrow,individual,1,0.5020763874053955
0,0.0,0.4271430250177084,0.358570756502601,0.37730778756649297,0.39140112407100786,0.40467472589535125,0.41761244920815277,0.43225808948060734,0.4485378148766021,0.4697305579620778,0.5050158167892708,0.8671620460313866,0.9901587301587301,0.4426053161489132,0.0,0.9695108695652174,50,1164,5281,772032,no_split,narrow,individual,1,0.5045967102050781
1,1.0,0.45893142242711255,0.371291697651608,0.39510999469923097,0.4148624427845605,0.4328211879821082,0.4508953429577358,0.46974063867659244,0.49118792003726713,0.5169745275024825,0.5564752219090495,0.8775464459673156,0.9477094972067039,0.4426053161489132,0.0,0.9695108695652174,50,1164,5281,772032,no_split,narrow,individual,1,0.5045967102050781
0,0.0,0.4566602205439943,0.36773713467442987,0.38870690864173635,0.4055950742111594,0.42196708448627923,0.4394451172282902,0.45821278894817163,0.4824257976232479,0.5152239415595495,0.5685667200272689,1.0579111430390962,0.9947826086956522,0.47680989273453867,0.0,0.9782162162162162,50,1164,5332,772032,no_split,narrow,individual,1,0.49273061752319336
1,1.0,0.4967429017832491,0.3928361480840111,0.4227268158590505,0.4466851752119478,0.4669074106446134,0.48685024110878333,0.5084656954363965,0.5335656522628454,0.5651458908817967,0.6113887491588185,1.0841219375029783,0.9618279569892473,0.47680989273453867,0.0,0.9782162162162162,50,1164,5332,772032,no_split,narrow,individual,1,0.49273061752319336
0,0.0,0.4531105154154124,0.3685197626985417,0.39279931735086926,0.4105808724215064,0.42718638626766303,0.4435175581664276,0.46018782234424255,0.47994638789631294,0.5053070760568212,0.5477493003160555,0.9576833940811467,0.9827411167512691,0.46775023033724555,0.0,0.9542564102564103,50,1164,5575,772032,no_split,narrow,individual,1,0.5034124851226807
1,1.0,0.48269335903984206,0.3859688264724446,0.4125053056987814,0.43390984124049037,0.45292858272931474,0.4726131207383232,0.4936575448879447,0.5174391119940442,0.5466441560444407,0.5912486529260512,1.102845261252191,0.925181347150259,0.46775023033724555,0.0,0.9542564102564103,50,1164,5575,772032,no_split,narrow,individual,1,0.5034124851226807
0,0.0,0.45326634163631696,0.36232414232197246,0.3853937805289447,0.40318542290339343,0.42006337998111765,0.43697729880799485,0.45581725774495235,0.4798598415878548,0.5112543796845787,0.5657914224804484,1.0536525369772696,0.9560621761658031,0.46289760697758464,0.0,0.9228571428571428,50,1164,5731,772032,no_split,narrow,individual,1,0.4959990978240967
1,1.0,0.47223848240906535,0.37368284584560396,0.4001326306440428,0.42003430742506725,0.43921882073796187,0.4589747062761596,0.480023589192302,0.5049008908713337,0.5372930020469129,0.5879480015041277,1.0970117369064876,0.8906532663316583,0.46289760697758464,0.0,0.9228571428571428,50,1164,5731,772032,no_split,narrow,individual,1,0.4959990978240967
0,0.0,0.4392120943550835,0.36190248309333867,0.38373052676436914,0.4009794512580908,0.4152657562770649,0.42934161800250237,0.44486756603642547,0.4628663732333757,0.48732941465348145,0.5279533202256567,0.9172218622548242,0.995,0.4612689594596309,0.0,0.962016348773842,50,1164,5761,772032,no_split,narrow,individual,1,0.5009579658508301
1,1.0,0.48344635388168955,0.3905274796453052,0.4181860432671328,0.4390298673891781,0.45859643947345297,0.4772016616887409,0.49595861113384887,0.5174500773855528,0.5438399906303111,0.5837860980390698,1.0493014742145805,0.9288524590163935,0.4612689594596309,0.0,0.962016348773842,50,1164,5761,772032,no_split,narrow,individual,1,0.5009579658508301
0,0.0,0.4452823360100317,0.3357791468231602,0.3643787592869891,0.3862894910721392,0.40601771273681064,0.4254452683168426,0.4478702330282648,0.4766466548967045,0.5150331835206476,0.5809544224470155,1.1235201718862067,0.9185714285714286,0.4489328829589011,0.0,0.897289972899729,50,1164,5803,772032,no_split,narrow,individual,1,0.4952878952026367
1,1.0,0.45198408637885157,0.3467977002347183,0.37523865250913674,0.3973318282379094,0.41628638145581903,0.4373496335230162,0.45935127642589724,0.48474157911665966,0.5205584018910979,0.5769703625867386,1.1087311913376596,0.8795024875621891,0.4489328829589011,0.0,0.897289972899729,50,1164,5803,772032,no_split,narrow,individual,1,0.4952878952026367
0,0.0,0.5012234421647632,0.3729079303119111,0.40466287975108617,0.42876067075031116,0.4519512690657914,0.47587178293565274,0.5025742220336906,0.534154874049352,0.5815295981887784,0.6612553578101228,1.4904685158125572,0.9717412935323383,0.5191797726760626,0.0,0.9326614987080103,50,1164,5815,772032,no_split,narrow,individual,1,0.4864492416381836
1,1.0,0.5385841943576279,0.39737849637672074,0.43543967492606517,0.46561270033526325,0.4941259761479921,0.5218886795534327,0.5525868719365412,0.5858882526751759,0.6313560782118814,0.6987012757105475,1.488161027048411,0.8904301075268817,0.5191797726760626,0.0,0.9326614987080103,50,1164,5815,772032,no_split,narrow,individual,1,0.4864492416381836
0,0.0,0.4208505763926441,0.3531870290411048,0.3691973658936239,0.38193970042921815,0.3948470179270896,0.4081585905147844,0.42231968113793933,0.4404343534294887,0.46253372063932463,0.5003910081468778,1.0440701301172501,0.9920224719101124,0.4455926475210132,0.0,0.9749318801089918,50,1164,6055,772032,no_split,narrow,individual,1,0.4955010414123535
1,1.0,0.46889470392762533,0.36836251171554496,0.39587945015347836,0.41821982660460444,0.43851673843141764,0.45934973011699076,0.4819213395310732,0.5054565887746297,0.5343385703963093,0.5803835655904853,1.089274154323733,0.9588359788359788,0.4455926475210132,0.0,0.9749318801089918,50,1164,6055,772032,no_split,narrow,individual,1,0.4955010414123535
0,0.0,0.47298629357859484,0.35731694314058915,0.3829082025173709,0.40283289943414324,0.4234782328779078,0.4451177383360936,0.47175126485879937,0.5018033610084025,0.5459877136612887,0.6229058573437588,1.404825497781802,0.9501020408163265,0.48408232348279834,0.0,0.929016393442623,50,1164,6109,772032,no_split,narrow,individual,1,0.48740339279174805
1,1.0,0.4968753932547035,0.3719436558754858,0.40021759399381424,0.42501683235667287,0.44972568955965103,0.4760904322272913,0.5045077177574094,0.5372336258384496,0.5783783153053017,0.6482661203137747,1.2589867028321313,0.9047058823529411,0.48408232348279834,0.0,0.929016393442623,50,1164,6109,772032,no_split,narrow,individual,1,0.48740339279174805
0,0.0,0.4012612188397897,0.3356789691903887,0.3519308904903387,0.3635904771858336,0.37512573460623805,0.3868732301270837,0.39975654642030006,0.41564716924399303,0.43988136936635736,0.48468214286931743,1.009431254337327,0.9863207547169811,0.42234576759158443,0.0,0.9310791366906475,50,1164,6214,772032,no_split,narrow,individual,1,0.4906473159790039
1,1.0,0.44415027654466005,0.357314186118124,0.38109068364063614,0.40069604666783193,0.41924250688332015,0.43773924043281703,0.4550796402943788,0.47469227352447535,0.49998740074469333,0.5378523362471752,1.0241231316603832,0.8739512195121951,0.42234576759158443,0.0,0.9310791366906475,50,1164,6214,772032,no_split,narrow,individual,1,0.4906473159790039
0,0.0,0.4568923975223521,0.36176978234597035,0.3855206123522998,0.40598668959722056,0.42452075839747766,0.4422279414255459,0.46300934108294944,0.4877552671581644,0.5181477714565853,0.5701629897822038,1.0137765473425437,0.9379787234042554,0.46267341605347795,0.0,0.9279045092838196,50,1164,6253,772032,no_split,narrow,individual,1,0.4886655807495117
1,1.0,0.46842384718496816,0.3635319452526674,0.3907853211138569,0.4119627854025077,0.43018096637627967,0.45052651693557444,0.4737039353576945,0.5013561121330413,0.5387822810923792,0.5957873122329993,1.1585129889818586,0.9178835978835979,0.46267341605347795,0.0,0.9279045092838196,50,1164,6253,772032,no_split,narrow,individual,1,0.4886655807495117
0,0.0,0.46078463379496976,0.37499743159866916,0.3997884912145553,0.41934434040179436,0.43509889609062674,0.4520849800014839,0.4694805443281534,0.48887388422052536,0.515420266673925,0.5557441053055245,0.9524994728807816,0.9787845303867403,0.47532109021435864,0.0,0.9454347826086956,50,1164,6262,772032,no_split,narrow,individual,1,0.4931180477142334
1,1.0,0.4893911362673501,0.39243925079631464,0.42199012384840096,0.44287667542415193,0.4629090213977108,0.4828809705679977,0.5025025259770242,0.525939398157289,0.5538899027277959,0.5943457061452881,0.9570952068490769,0.9131550802139038,0.47532109021435864,0.0,0.9454347826086956,50,1164,6262,772032,no_split,narrow,individual,1,0.4931180477142334
0,0.0,0.4994961321737974,0.4064844639056007,0.4291924454322218,0.44886318881268444,0.4666521473689545,0.48468186983881417,0.5048893625874862,0.5268941546833937,0.5579124218809088,0.6115345563121808,1.1234116950459365,0.9895187165775401,0.5126938969038672,0.0,0.9732608695652174,50,1164,6361,772032,no_split,narrow,individual,1,0.4939558506011963
1,1.0,0.5263291565973646,0.4260372336407262,0.45413631081657896,0.47616356188407416,0.49654330284041354,0.5157546903949637,0.5364932124707207,0.5599003487324646,0.5918121516940181,0.6388005608382574,1.1991410017105204,0.9564640883977901,0.5126938969038672,0.0,0.9732608695652174,50,1164,6361,772032,no_split,narrow,individual,1,0.4939558506011963
0,0.0,0.420553175181377,0.3432335311820937,0.3645991746805179,0.38134343062136283,0.39612888862532086,0.41056404133076346,0.4266425437204594,0.44474411357682614,0.4696170650404914,0.5084824463870055,0.8379504650930459,0.9780327868852459,0.429718057139623,0.0,0.953,50,1164,6427,772032,no_split,narrow,individual,1,0.49457859992980957
1,1.0,0.4382316276896689,0.35541632104382487,0.37890956822738975,0.39647796833516935,0.41341568632503123,0.43025748551441945,0.44682061691782354,0.4670015892929583,0.491315787786768,0.5319572534809919,0.9018313795162337,0.929746192893401,0.429718057139623,0.0,0.953,50,1164,6427,772032,no_split,narrow,individual,1,0.49457859992980957
0,0.0,0.47005429001631555,0.3836225153306838,0.40189754191305554,0.41864969029647014,0.4346437743993733,0.45147308844354694,0.4705228912156403,0.4949187757571884,0.5274538463104399,0.5826530825505284,1.079435166348107,0.9700523560209424,0.474685930286783,0.0,0.9489709762532982,50,1164,6583,772032,no_split,narrow,individual,1,0.49393534660339355
1,1.0,0.4793914797105025,0.39389592029383663,0.4169771349858097,0.4340882618882763,0.45026110452140383,0.4667200546963338,0.4846252730247401,0.5053713381068152,0.5332269400731396,0.5775587437440912,1.0473840036987792,0.9275531914893617,0.474685930286783,0.0,0.9489709762532982,50,1164,6583,772032,no_split,narrow,individual,1,0.49393534660339355
0,0.0,0.4443858677202498,0.3591217469092935,0.3820446280870678,0.39914756871198703,0.4150530092221467,0.43081665096096733,0.44789911323727616,0.46843545961421396,0.49611141951625165,0.5447232267127923,1.0041416788585225,0.9851282051282051,0.46322511524390425,0.0,0.9447692307692308,50,1164,6634,772032,no_split,narrow,individual,1,0.4920055866241455
1,1.0,0.4820643627675587,0.38025804134229296,0.40816596163271335,0.4321336875810991,0.4539229965716696,0.47321818248553676,0.4945397717867333,0.5190069579643696,0.5485138833464946,0.592971524686666,1.067916539188771,0.9044102564102564,0.46322511524390425,0.0,0.9447692307692308,50,1164,6634,772032,no_split,narrow,individual,1,0.4920055866241455
0,0.0,0.45651228103215996,0.3782271241615615,0.40018765372892084,0.41664833541305546,0.43149986607704577,0.4457917333473016,0.4613194172928837,0.4784337883926772,0.5013115977010788,0.5434064633500979,1.025741999698534,0.9853684210526316,0.48128374377558064,0.0,0.9394666666666667,50,1164,6844,772032,no_split,narrow,individual,1,0.48852109909057617
1,1.0,0.5067247055120669,0.4023283061578323,0.43016749835353024,0.453389155019244,0.47628118127913316,0.4973702131878083,0.5199038426235876,0.54520721353039,0.5763386606122229,0.6226027593321496,1.077671911280595,0.8923243243243243,0.48128374377558064,0.0,0.9394666666666667,50,1164,6844,772032,no_split,narrow,individual,1,0.48852109909057617
0,0.0,0.4466731618514544,0.359560109582212,0.3810846521080128,0.3986777621576112,0.41531758494511534,0.4320278416067942,0.4492001401305752,0.470335306841312,0.4995945913356363,0.5511785304776381,1.1991929301302366,0.9761748633879781,0.46538677370152354,0.0,0.9353133514986376,50,1164,7624,772032,no_split,narrow,individual,1,0.49230027198791504
1,1.0,0.48399868113936406,0.37666616118381474,0.40651274190466924,0.42819000631669935,0.45016028598428137,0.4715531860030223,0.49496122379021984,0.5226467182023717,0.5557277065457277,0.6057331574279848,1.0103287129705132,0.8946739130434782,0.46538677370152354,0.0,0.9353133514986376,50,1164,7624,772032,no_split,narrow,individual,1,0.49230027198791504
0,0.0,0.4131424866071956,0.34575358008637086,0.3614042484848735,0.3737468158823969,0.3858003767603168,0.39839480253648907,0.41143527376873823,0.428489780353274,0.45244257523687365,0.4995575368863536,1.3098650793486988,0.978716577540107,0.4324337246677542,0.0,0.9266318537859007,50,1164,7756,772032,no_split,narrow,individual,1,0.4909360408782959
1,1.0,0.45083914057247093,0.35986601701357557,0.38239048599595965,0.40178690689228475,0.41985081728477996,0.439159040206823,0.4602896749190032,0.48256742689248583,0.511784709174065,0.5560244394559247,1.0770819113512955,0.876938775510204,0.4324337246677542,0.0,0.9266318537859007,50,1164,7756,772032,no_split,narrow,individual,1,0.4909360408782959
0,0.0,0.4331595711496689,0.33971985066790933,0.36599133859784944,0.3859966423868403,0.4043241748080146,0.4221232725274417,0.44123666500104464,0.4627364917558782,0.49204635759730386,0.5385994755807305,0.963906644157422,0.9782291666666667,0.445864540459284,0.0,0.9670053475935829,50,1164,7768,772032,no_split,narrow,individual,1,0.492326021194458
1,1.0,0.4592675850056912,0.3526700302382038,0.3804648904883649,0.4026534809855053,0.4237726222654809,0.4465474697325536,0.4706230276047391,0.49802453726569,0.5315198308156721,0.5830231417247497,1.0424032604751508,0.9551648351648352,0.445864540459284,0.0,0.9670053475935829,50,1164,7768,772032,no_split,narrow,individual,1,0.492326021194458
0,0.0,0.4088302874719422,0.32190961135699153,0.343978201143924,0.360487628599094,0.3752775484862101,0.39129948424948247,0.40919431504029463,0.4304183177852663,0.46040520469937496,0.5123517432348663,1.0820140037643668,0.9700534759358289,0.42959096285333065,0.0,0.9232795698924732,50,1164,7807,772032,no_split,narrow,individual,1,0.493929386138916
1,1.0,0.4505760779685719,0.33771971590733707,0.3658980988835314,0.38914307706183926,0.4115420033851106,0.43568004905681307,0.46075043025271983,0.4894960407761828,0.5266300505070349,0.5836225551906208,1.1720411632085563,0.876,0.42959096285333065,0.0,0.9232795698924732,50,1164,7807,772032,no_split,narrow,individual,1,0.493929386138916
0,0.0,0.4018172549734896,0.32937367099232834,0.34625265572256414,0.3605517970032992,0.3737558812870523,0.3868287394957812,0.4011658036229727,0.4192440196662372,0.4461299720118695,0.4933487995299827,1.0384529820877817,0.9829670329670329,0.41765974100563935,0.0,0.9496952908587257,50,1164,7813,772032,no_split,narrow,individual,1,0.4931654930114746
1,1.0,0.4337677435634676,0.346671597287274,0.36913012281565427,0.3881221048112772,0.40597371473107824,0.4236950681099355,0.4424466992682413,0.4635315114585798,0.49022974748267706,0.5347987971487912,1.066831757822767,0.9158659217877095,0.41765974100563935,0.0,0.9496952908587257,50,1164,7813,772032,no_split,narrow,individual,1,0.4931654930114746
0,0.0,0.41477864191218833,0.35049862417345967,0.3679360091908389,0.3816441464878392,0.3932711383417173,0.40508996902267635,0.4180182728608634,0.43350851706181215,0.4540104334360926,0.4894941682977397,0.948534382054637,0.9952127659574468,0.4373371101556407,0.0,0.967079207920792,50,1164,7828,772032,no_split,narrow,individual,1,0.4923126697540283
1,1.0,0.4569713325156825,0.3759902893774172,0.4003314285998938,0.4194882050820218,0.4357973450797056,0.45178099833518115,0.4682141893026423,0.4868439681189055,0.5103111109608588,0.5440043040232291,0.8021079904921178,0.9425925925925925,0.4373371101556407,0.0,0.967079207920792,50,1164,7828,772032,no_split,narrow,individual,1,0.4923126697540283
0,0.0,0.5399562739135547,0.40421144832250255,0.43364600682845195,0.45708905899611524,0.4813954174100264,0.5072813855723113,0.5363041211797497,0.574965477789654,0.6269920744793295,0.7227998364165633,1.4267105941127807,0.9834920634920635,0.5623920057323266,0.0,0.9650645994832041,50,1164,7840,772032,no_split,narrow,individual,1,0.49111413955688477
1,1.0,0.5838079315593363,0.4247316599678834,0.4665414749016096,0.5010007199911453,0.5315597899698172,0.5634707438270707,0.5968150678181855,0.6376388902518437,0.6858053570565356,0.7662363235499924,1.3952566902154004,0.9474747474747475,0.5623920057323266,0.0,0.9650645994832041,50,1164,7840,772032,no_split,narrow,individual,1,0.49111413955688477
0,0.0,0.47440806534981445,0.3921802917856532,0.41239825787612233,0.42972359954127803,0.44537720109140444,0.4614618752860329,0.4795999842498646,0.5004325028736529,0.527854896252927,0.5725519919236077,0.914945382780191,0.9982222222222222,0.4983776166757104,0.0,0.9906666666666667,50,1164,7924,772032,no_split,narrow,individual,1,0.5040524005889893
1,1.0,0.5205033563611527,0.42082336295855177,0.44858582486257276,0.47148478092542667,0.4927083273305591,0.5125904028232453,0.5350264680718942,0.5578086725770922,0.5862636113455,0.6300244515048146,0.9586610338146786,0.9836923076923076,0.4983776166757104,0.0,0.9906666666666667,50,1164,7924,772032,no_split,narrow,individual,1,0.5040524005889893
0,0.0,0.46331285098155583,0.37579532368983437,0.3970015227181554,0.41414436416857286,0.4307970463281826,0.44797662391186993,0.46721879173632286,0.49004330584183736,0.5200829595169347,0.5723107588195484,0.9799275677347643,0.9869473684210527,0.4785264923456183,0.0,0.9693670886075949,50,1164,7939,772032,no_split,narrow,individual,1,0.469585657119751
1,1.0,0.49262694043913957,0.39165300036446177,0.419256132896328,0.4407870783898472,0.4606311651264747,0.48040632977266823,0.5032101717673904,0.5273994799444959,0.5578707930359724,0.607294788909114,1.089667883093874,0.9530731707317073,0.4785264923456183,0.0,0.9693670886075949,50,1164,7939,772032,no_split,narrow,individual,1,0.469585657119751
0,0.0,0.4495105771302433,0.36309982654741685,0.38371122611926745,0.4008535198047631,0.41690003777996876,0.43349668900949967,0.45209821471205897,0.47350712151185875,0.5057633337958789,0.5544295811790166,1.128654993553023,0.9650909090909091,0.4622674868087734,0.0,0.9414124293785311,50,1164,8026,772032,no_split,narrow,individual,1,0.38840675354003906
1,1.0,0.47340447144875997,0.3742373002015651,0.398819884040786,0.41861693259435756,0.43866406228953525,0.459559324128761,0.48008789020214626,0.506762052412039,0.539230939456368,0.59096273329972,1.1982831771417846,0.9207407407407407,0.4622674868087734,0.0,0.9414124293785311,50,1164,8026,772032,no_split,narrow,individual,1,0.38840675354003906
0,0.0,0.4451947679307345,0.3461769132557136,0.3708705006334792,0.3895505050577344,0.40830406393764157,0.42729818612669723,0.448272778210179,0.4736878401192624,0.5079600760017026,0.5639695643457693,1.2069427579281709,0.9271657754010695,0.4571842249127962,0.0,0.894958904109589,50,1164,8311,772032,no_split,narrow,individual,1,0.3863844871520996
1,1.0,0.469779890393951,0.35479305094675256,0.38245840991614116,0.4035746921300934,0.42626148083085513,0.4496797707540387,0.47496800116972926,0.5068329657144954,0.5469963508673498,0.6117675940663819,1.1490411141269434,0.861123595505618,0.4571842249127962,0.0,0.894958904109589,50,1164,8311,772032,no_split,narrow,individual,1,0.3863844871520996
0,0.0,0.3875521307829495,0.32200021204945,0.341317485220289,0.3556184097763838,0.36799680685571706,0.3807161015088423,0.3942089082565933,0.4084545357401769,0.4266631708940576,0.4574853026958329,0.890490116941028,0.9830051813471503,0.40932117164914367,0.0,0.9244444444444444,50,1164,8446,772032,no_split,narrow,individual,1,0.3885176181793213
1,1.0,0.43319290396264054,0.340620152562929,0.3653802681906132,0.3854295757401014,0.40472189622168975,0.4233232090592558,0.44506666796074457,0.46849925990945535,0.49502914162564826,0.5369291142891918,0.9773595216273088,0.8602272727272727,0.40932117164914367,0.0,0.9244444444444444,50,1164,8446,772032,no_split,narrow,individual,1,0.3885176181793213
0,0.0,0.48109042844878386,0.3960967891972735,0.4191020366834525,0.43649076445020746,0.4521803000828622,0.4678750128452225,0.48414550815317,0.5049934548586356,0.5328409507732567,0.5809839156998088,1.0417638401523115,0.9776884422110553,0.4932401040560588,0.0,0.9567272727272728,50,1164,8521,772032,no_split,narrow,individual,1,0.3876640796661377
1,1.0,0.5062389505391109,0.40869249590400725,0.4359519038988593,0.4554454234384773,0.47638147100508443,0.4949009991080208,0.5154492535831038,0.5397393770078265,0.5702161215323346,0.6157357590120245,0.9860024491878896,0.9343010752688172,0.4932401040560588,0.0,0.9567272727272728,50,1164,8521,772032,no_split,narrow,individual,1,0.3876640796661377
0,0.0,0.5506288438308423,0.428413762953584,0.45905337354450637,0.48510400048142155,0.5080803422783318,0.5326413188060914,0.5577810541626399,0.5887100417904875,0.6292167463619497,0.6969729619481397,1.5363694755119963,0.9841530054644809,0.5627763140244424,0.0,0.9767335243553008,50,1164,8704,772032,no_split,narrow,individual,1,0.3966193199157715
1,1.0,0.5761678022499173,0.43937285238774004,0.4751685331530422,0.5040390008471161,0.5303899352261581,0.5580415929804574,0.5869495911693944,0.6227214197460939,0.6659228429478985,0.7351341692741451,1.4821864262620028,0.9685542168674699,0.5627763140244424,0.0,0.9767335243553008,50,1164,8704,772032,no_split,narrow,individual,1,0.3966193199157715
0,0.0,0.4528960030221053,0.3592277015495289,0.3814822766647284,0.3995518543208163,0.4161302013320911,0.4341299107859168,0.45419902987666905,0.4799939614645897,0.5134408791252442,0.5710239685524005,1.2943375554957601,0.990048309178744,0.4673846773590876,0.0,0.976340206185567,50,1164,8755,772032,no_split,narrow,individual,1,0.39696168899536133
1,1.0,0.48395459773342664,0.37786573786962635,0.40547337421471535,0.4290678190899178,0.45034226179001646,0.4725654132325346,0.4944040713817165,0.5203340684824289,0.5540156996423987,0.6060466553848431,1.077195513922521,0.9606629834254143,0.4673846773590876,0.0,0.976340206185567,50,1164,8755,772032,no_split,narrow,individual,1,0.39696168899536133
0,0.0,0.461417427896538,0.3620182239067486,0.38720681763421055,0.40620162525510495,0.4241113144912193,0.4424951882978857,0.4630035783912097,0.4890662058852266,0.5259398153793926,0.5893270945899063,1.0427717884636638,0.9801923076923077,0.47081510154690004,0.0,0.9492,50,1164,8785,772032,no_split,narrow,individual,1,0.39700984954833984
1,1.0,0.4809959146681255,0.3815688060075207,0.41027461918378816,0.43159199864855935,0.4514143926812662,0.470747152584592,0.4903472763333105,0.5143894720557873,0.5437220822234672,0.5911012486882825,1.1288138509585222,0.915625,0.47081510154690004,0.0,0.9492,50,1164,8785,772032,no_split,narrow,individual,1,0.39700984954833984
0,0.0,0.4098506989857927,0.327917408487025,0.3464679566509503,0.36103906725293344,0.37481986094317754,0.3889214529004065,0.40522293814869675,0.42707538782377247,0.4570003179586159,0.5151567686516598,1.2641660276884903,0.9712765957446808,0.4311229818276288,0.0,0.9088431876606684,50,1164,8788,772032,no_split,narrow,individual,1,0.3939857482910156
1,1.0,0.4510194453811869,0.34537014210782446,0.36973654058316957,0.3941469542423549,0.4150457231323199,0.43676392272583553,0.4602331211655322,0.488413471910823,0.5216467230779288,0.5747525205464503,1.1191748618060864,0.8504477611940299,0.4311229818276288,0.0,0.9088431876606684,50,1164,8788,772032,no_split,narrow,individual,1,0.3939857482910156
0,0.0,0.4305534291514796,0.3757685824806565,0.38983469534043863,0.4007766972914728,0.4107307828315178,0.4213462444574926,0.43269053444022815,0.44644522523580743,0.4642380991795426,0.4952837729774749,0.8649348005851244,0.9941111111111111,0.44920424876081516,0.0,0.9597267759562842,50,1164,161753,772032,no_split,narrow,individual,1,0.39800167083740234
1,1.0,0.46725342902791417,0.39504398605215135,0.41644336413494665,0.43135066672861566,0.4452808196718619,0.4601118022346815,0.47541848023317884,0.4932845262199064,0.5151402812675374,0.5478835970880863,0.7993108621255476,0.9264516129032258,0.44920424876081516,0.0,0.9597267759562842,50,1164,161753,772032,no_split,narrow,individual,1,0.39800167083740234
0,0.0,0.44701320793043253,0.37216281476381874,0.39097752781804224,0.40631860891066807,0.421009595773043,0.4359440000560668,0.45146036225847547,0.4694418885028432,0.4939960946178769,0.5339415036742965,1.110856161525317,0.9920618556701031,0.46705501972390634,0.0,0.9831914893617021,50,1164,337788,772032,no_split,narrow,individual,1,0.39419102668762207
1,1.0,0.48841826965760926,0.3894715063940396,0.4168430798377245,0.4380452991505392,0.45812373011519036,0.47849484379421126,0.49952731445923104,0.5246134162341485,0.5551189355581829,0.5982861587879831,1.0142572319925605,0.9737362637362638,0.46705501972390634,0.0,0.9831914893617021,50,1164,337788,772032,no_split,narrow,individual,1,0.39419102668762207
