,congruency,mean_rt,qu10_rt,qu20_rt,qu30_rt,qu40_rt,qu50_rt,qu60_rt,qu70_rt,qu80_rt,qu90_rt,qu100_rt,mean_acc,mean_rt_overall,nonconvergent_trials,accuracy_overall,n_posterior_draws,condition,id,slurm_id,split,spacing,estimation_level,number_parts,time_post_sampling_sec
0,0.0,0.4139478342218648,0.3345749028043666,0.35186347696259673,0.36703820723860786,0.38178372580121905,0.3975002113259637,0.41536100795075065,0.4365718675591679,0.46619585042416356,0.518357034665647,0.9588574050879163,0.9716842105263158,0.41536253157700365,0.0,0.9527513227513228,50,526,1108,772093,no_split,wide,individual,1,0.749824047088623
1,1.0,0.41679227890400566,0.3457452466317472,0.3648970119925401,0.380180585501082,0.39393554093515454,0.40777860429429424,0.42302642141621377,0.4402831960317875,0.4620547989186564,0.49659353688479085,0.8362918403457267,0.9336170212765957,0.41536253157700365,0.0,0.9527513227513228,50,526,1108,772093,no_split,wide,individual,1,0.749824047088623
0,0.0,0.4310886414653352,0.3541245250732421,0.3747244560016672,0.38949264438401,0.4030800982092914,0.41851927573498215,0.43483973066880566,0.45574455743512254,0.47990764673559155,0.5186179520026741,1.0477107784057593,0.9692063492063492,0.44277219780369015,0.0,0.9500526315789474,50,526,1507,772093,no_split,wide,individual,1,0.7261526584625244
1,1.0,0.4543334132379785,0.3587137380897886,0.38173702976176827,0.4011717012575315,0.4193903896295226,0.43796915591269847,0.45896024671078434,0.4848663478062847,0.517203754175626,0.5715047309155689,1.0830367210441467,0.9310994764397906,0.44277219780369015,0.0,0.9500526315789474,50,526,1507,772093,no_split,wide,individual,1,0.7261526584625244
0,0.0,0.4459046717798654,0.3529302548513331,0.3778274117822033,0.3980189817816079,0.41686385628784584,0.43482134799680816,0.4522661289165867,0.47307192092748046,0.5032088354092188,0.5537012713018598,1.303008437824047,0.9872631578947368,0.4592830987348001,0.0,0.9746456692913386,50,526,1538,772093,no_split,wide,individual,1,0.7222816944122314
1,1.0,0.47259148156955183,0.36800058716605577,0.3975533995459169,0.42087078077867685,0.44144428048795753,0.4616437566701834,0.4841767858322744,0.5101663280782763,0.5424089879737548,0.5882899937865415,0.952440462496751,0.9620942408376963,0.4592830987348001,0.0,0.9746456692913386,50,526,1538,772093,no_split,wide,individual,1,0.7222816944122314
0,0.0,0.46554204269395283,0.3721061018272036,0.39495787454889864,0.4137278007516954,0.4305424453262987,0.44849624410476546,0.4687343971663563,0.49436413557970427,0.5279994597589669,0.5813251057945604,1.0199919019631751,0.985108695652174,0.4694872170433332,0.0,0.9721081081081081,50,526,1582,772093,no_split,wide,individual,1,0.7340540885925293
1,1.0,0.47338997016315026,0.386349110388634,0.4099135797719951,0.4282580691335333,0.4453610233495618,0.46273553187794236,0.48101386092063136,0.502895120119221,0.5300151108550245,0.5744366855986953,1.0104749072098196,0.959247311827957,0.4694872170433332,0.0,0.9721081081081081,50,526,1582,772093,no_split,wide,individual,1,0.7340540885925293
0,0.0,0.42830475476226926,0.35328739899050116,0.3729711594789553,0.38828146024068044,0.4023312446903617,0.4155175596771489,0.43086020603992087,0.4494365184397781,0.4736640483300571,0.5171880645837305,1.1204855702741314,0.9701570680628272,0.4393435479145991,0.0,0.9311227154046997,50,526,1583,772093,no_split,wide,individual,1,0.7184233665466309
1,1.0,0.4503248473525939,0.3669542382998825,0.3895952305003969,0.4075887746052013,0.4241193334509594,0.4416103601350615,0.45896131519965866,0.4781018520657465,0.5035579302180455,0.5434664584048369,0.9438748370131007,0.8922916666666667,0.4393435479145991,0.0,0.9311227154046997,50,526,1583,772093,no_split,wide,individual,1,0.7184233665466309
0,0.0,0.5507742274351045,0.39914194154372856,0.43371759197400406,0.46213007786049876,0.4892146449394498,0.5174380293573403,0.5496665432903989,0.5907343485519995,0.6476294604848671,0.7460318058513558,1.478881700356856,0.9701694915254238,0.5685786084314474,0.0,0.955989010989011,50,526,1597,772093,no_split,wide,individual,1,0.7201356887817383
1,1.0,0.5854308834921569,0.41323185462633744,0.45717084183457535,0.4925320889174893,0.5248151826628297,0.5579011952399662,0.5982617528963565,0.6411299515477078,0.6974616886091527,0.7886679896701829,1.5452930801118099,0.9425668449197862,0.5685786084314474,0.0,0.955989010989011,50,526,1597,772093,no_split,wide,individual,1,0.7201356887817383
0,0.0,0.40019363881998066,0.33062478648890636,0.35240624396551123,0.36810712476402374,0.38178367458592216,0.39570753072306186,0.4098018695316674,0.4248433313837592,0.44390823153155373,0.4740407480120534,0.7111701168158212,0.9918947368421053,0.41376750706946375,0.0,0.9818997361477573,50,526,1601,772093,no_split,wide,individual,1,0.717278003692627
1,1.0,0.4274131947276742,0.3434346935838137,0.3648470268720109,0.38305705317416894,0.4004491099372213,0.41815593583552646,0.4365158680997833,0.4575050394955879,0.4858779833950064,0.5263215046347283,0.8193137264826257,0.9718518518518519,0.41376750706946375,0.0,0.9818997361477573,50,526,1601,772093,no_split,wide,individual,1,0.717278003692627
0,0.0,0.46620640889426557,0.3449995808776,0.3720703654304781,0.39387932414278604,0.41541057031139184,0.4379354686091237,0.4640413359350939,0.49867481327843577,0.5454322101791514,0.6224309412629094,1.4342344338898894,0.9774736842105263,0.4822322267574334,0.0,0.9585263157894737,50,526,1614,772093,no_split,wide,individual,1,0.7180798053741455
1,1.0,0.4982580446206014,0.3584255571685196,0.3915409556593657,0.4196349105742609,0.4476387553047168,0.47437059361385225,0.5061242673710138,0.5426358724165798,0.5946228448069987,0.6655778681028659,1.430235111313746,0.9395789473684211,0.4822322267574334,0.0,0.9585263157894737,50,526,1614,772093,no_split,wide,individual,1,0.7180798053741455
0,0.0,0.42208349240242715,0.370538036726663,0.3842397129666679,0.3950116070613481,0.40582801180840444,0.41592487565267555,0.42712763489312816,0.44010864448580067,0.45685480582049653,0.48173924029143633,0.6861349178569003,0.9954736842105263,0.4302218376461018,0.0,0.9907086614173228,50,526,161753,772093,no_split,wide,individual,1,0.7166597843170166
1,1.0,0.43831757375237496,0.3784245633928534,0.3951353879441746,0.40848618895948735,0.42104640264279597,0.43297793336635915,0.4459728526400725,0.4606400399019491,0.47771553130214645,0.5038207258695878,0.7315507178240354,0.9859685863874346,0.4302218376461018,0.0,0.9907086614173228,50,526,161753,772093,no_split,wide,individual,1,0.7166597843170166
0,0.0,0.46913478570425604,0.36925820566840395,0.3923269684956432,0.4108941920925249,0.4293173219278217,0.4489209360042222,0.47140437788236544,0.4998682564484052,0.5357627176420847,0.5992859798743679,1.1787054615117758,0.9739361702127659,0.4709374351441077,0.0,0.9597889182058047,50,526,1638,772093,no_split,wide,individual,1,0.714808464050293
1,1.0,0.47271177071841186,0.3807131172812349,0.40545299302821913,0.42535401349248314,0.4423906835053581,0.4602273078347272,0.48020501422866957,0.5036586901875645,0.5322633888615096,0.5782026312409824,0.9472292148861456,0.9458638743455497,0.4709374351441077,0.0,0.9597889182058047,50,526,1638,772093,no_split,wide,individual,1,0.714808464050293
0,0.0,0.38369155149698686,0.3207794887276978,0.3377722180316319,0.3507117835270284,0.36245677994142933,0.375070686414372,0.3884573181030925,0.40356665001955244,0.42304237590748034,0.4559683762196585,0.8482506593619319,0.978421052631579,0.39440279391984145,0.0,0.9500791556728232,50,526,1657,772093,no_split,wide,individual,1,0.7149679660797119
1,1.0,0.4051707095830286,0.3307353684631471,0.3511808930321516,0.3680228610704113,0.3818025166642008,0.395671553374662,0.4112947309797318,0.4300383945822083,0.4536969710325126,0.49103690801303385,0.8293443468732887,0.9215873015873016,0.39440279391984145,0.0,0.9500791556728232,50,526,1657,772093,no_split,wide,individual,1,0.7149679660797119
0,0.0,0.45540932964022857,0.36902964363136903,0.38901446537382334,0.40455532479792633,0.4196325200083698,0.4368141249430961,0.4561022462431111,0.47872663140656935,0.5113881322098603,0.5668109561632504,1.2315861435003035,0.9882978723404255,0.46847823472903716,0.0,0.9766137566137566,50,526,1663,772093,no_split,wide,individual,1,0.714019775390625
1,1.0,0.4814095723958584,0.38393872639644067,0.4084782642342691,0.42896468672694826,0.44853970942772403,0.4680118517618659,0.48910989131544663,0.5149195581136293,0.5454743958835535,0.5946526932697079,1.0484013352844985,0.9650526315789474,0.46847823472903716,0.0,0.9766137566137566,50,526,1663,772093,no_split,wide,individual,1,0.714019775390625
0,0.0,0.49901228951398147,0.39098216331103564,0.41770503033828404,0.4399230419866573,0.45981154880880004,0.4806053624396733,0.5028141974356383,0.530811725539113,0.5683197103982981,0.6304209551607787,1.3154854300451597,0.9760215053763441,0.5121711083929648,0.0,0.9549061662198391,50,526,1761,772093,no_split,wide,individual,1,0.7109496593475342
1,1.0,0.5252595592565523,0.4069881990907033,0.4373996726495242,0.46227028603238124,0.4857050676652017,0.5102017664236658,0.5359067742210596,0.5668637413982232,0.6038308842733541,0.6651427503138834,1.222998932626977,0.9339037433155081,0.5121711083929648,0.0,0.9549061662198391,50,526,1761,772093,no_split,wide,individual,1,0.7109496593475342
0,0.0,0.4348555069368497,0.3381660522157903,0.36190718408191785,0.38129216764201823,0.3991089015300404,0.41729106817516837,0.43755731339115106,0.4627012515676153,0.49557708674628015,0.5542574384040375,1.0540407174029542,0.9410471204188482,0.4412230838180026,0.0,0.9169109947643979,50,526,1768,772093,no_split,wide,individual,1,0.7168142795562744
1,1.0,0.4475906606991556,0.3473308880746573,0.37337539808488673,0.3940311087449386,0.4135773841464758,0.43336400098561023,0.45489172163507213,0.47997823435064435,0.5134290047185507,0.5644579057405006,1.0298092081596688,0.8927748691099476,0.4412230838180026,0.0,0.9169109947643979,50,526,1768,772093,no_split,wide,individual,1,0.7168142795562744
0,0.0,0.36421980865262765,0.29378222640998125,0.31289376991100815,0.32733684212156877,0.3409182988452144,0.35384241335834316,0.36919193212839174,0.38613324079919126,0.40927163652917403,0.448351551429027,0.7643368696056039,0.9521276595744681,0.3699320964226862,0.0,0.9234574468085106,50,526,1813,772093,no_split,wide,individual,1,0.707991361618042
1,1.0,0.37564438419274476,0.3018811468873045,0.32353739715230506,0.33988004067210936,0.35415197068997856,0.36891606002980304,0.384216538315479,0.4019666329727182,0.4233723328988653,0.4574771478971722,0.770562963211962,0.8947872340425532,0.3699320964226862,0.0,0.9234574468085106,50,526,1813,772093,no_split,wide,individual,1,0.707991361618042
0,0.0,0.38272739958160445,0.3087154962694034,0.3278611593492444,0.342695373208318,0.35713225906867613,0.3723427395323206,0.38670631488219115,0.4045426251233741,0.42940758245197835,0.47086471971293603,0.9187554989768871,0.9830526315789474,0.3905450282603122,0.0,0.9669291338582677,50,526,1821,772093,no_split,wide,individual,1,0.7092318534851074
1,1.0,0.3983217269459377,0.31961788941537334,0.3410187706471077,0.35779597945809827,0.37256105450152444,0.3885115909071645,0.4059424304729412,0.4253924354695392,0.45139678107833986,0.4901393598336598,0.8649129107304837,0.950890052356021,0.3905450282603122,0.0,0.9669291338582677,50,526,1821,772093,no_split,wide,individual,1,0.7092318534851074
0,0.0,0.43372170254097353,0.3488346340031875,0.3690922091594964,0.3867066474502782,0.40194373665284105,0.41881547011538023,0.4378636775533822,0.4599106820024488,0.48933999879252416,0.5376748344931223,0.9342915253745093,0.9895287958115183,0.4428763925272292,0.0,0.9825531914893617,50,526,275,772093,no_split,wide,individual,1,0.7095980644226074
1,1.0,0.45232799137790397,0.3556510370344203,0.3810909594682754,0.40147121605782593,0.4209982319302291,0.44172643915785936,0.461991535929996,0.48610370195143243,0.5161729325650666,0.5620503939406656,0.964889138760491,0.9753513513513513,0.4428763925272292,0.0,0.9825531914893617,50,526,275,772093,no_split,wide,individual,1,0.7095980644226074
0,0.0,0.36757619439199984,0.30383859286633674,0.31798650235212156,0.3304812028590119,0.34267350502341565,0.35508241529097406,0.36908574706329716,0.38612917628598253,0.40833640327844406,0.44633615538627597,0.8622144724138955,0.9711702127659575,0.37606764138466303,0.0,0.9555968169761273,50,526,3286,772093,no_split,wide,individual,1,0.7107968330383301
1,1.0,0.3845141600863598,0.31060092567967934,0.32804902959749815,0.34269153730912905,0.35715302329435833,0.3721102225859964,0.38874709791566103,0.40813290197136814,0.4341594618710096,0.47372175548316886,0.8417550271878115,0.9401058201058201,0.37606764138466303,0.0,0.9555968169761273,50,526,3286,772093,no_split,wide,individual,1,0.7107968330383301
0,0.0,0.4426533423327233,0.3586926169001588,0.3796210052063475,0.3974268436999512,0.41350292094370245,0.43010355404312506,0.4477155446360367,0.4692158965995032,0.4962537292797723,0.5400498644608415,1.0097845449438623,0.9824338624338624,0.45648667914943714,0.0,0.9686543535620052,50,526,3292,772093,no_split,wide,individual,1,0.7099604606628418
1,1.0,0.4702472089302735,0.36813954677885524,0.39412795985862,0.41529385699147187,0.4356464707412156,0.45590443745848336,0.4785143426319277,0.5032537893802809,0.5381132921737605,0.5897978081881808,1.2437125221197693,0.9549473684210527,0.45648667914943714,0.0,0.9686543535620052,50,526,3292,772093,no_split,wide,individual,1,0.7099604606628418
0,0.0,0.4429016446294067,0.3656640051387058,0.38651167530444097,0.4033709479466057,0.41864304144580794,0.4332683768817974,0.4495435241297761,0.46908907221965823,0.4929643402648011,0.5299146480439074,0.9664323743990945,0.9934736842105263,0.45157937125563735,0.0,0.9846719160104986,50,526,337788,772093,no_split,wide,individual,1,0.7104194164276123
1,1.0,0.4602116647581705,0.3758577271799355,0.3980214608959589,0.41622895035546115,0.43414491253637805,0.4514597628726805,0.4699629536286199,0.49087384242988175,0.5157430973376376,0.5552000426572915,0.9164060144578258,0.9759162303664921,0.45157937125563735,0.0,0.9846719160104986,50,526,337788,772093,no_split,wide,individual,1,0.7104194164276123
0,0.0,0.3943149583609193,0.3207277225006961,0.33836335470928264,0.35156180287994193,0.36511529218469857,0.379536154215601,0.3953334257821982,0.41608662662715834,0.44087819508020853,0.48610540471345765,0.9855435771334015,0.9811764705882353,0.4099978533703097,0.0,0.963494623655914,50,526,3487,772093,no_split,wide,individual,1,0.7085621356964111
1,1.0,0.4258502931906125,0.33309608492149956,0.3556593471045084,0.3748124695047159,0.3933133129743943,0.4117347910143737,0.4319546109699114,0.4564950422793992,0.4867246891030657,0.5361114259583661,1.0645157493172381,0.9456216216216217,0.4099978533703097,0.0,0.963494623655914,50,526,3487,772093,no_split,wide,individual,1,0.7085621356964111
0,0.0,0.401340370805139,0.34055207239115887,0.35821902787014304,0.3715038106400362,0.383694744583587,0.39485069370041637,0.40734509224722715,0.4222741297841624,0.4401742445934243,0.46927863611416887,0.7986914851623226,0.983455497382199,0.4068312445292389,0.0,0.9681481481481482,50,526,3580,772093,no_split,wide,individual,1,0.7086048126220703
1,1.0,0.41243957009770454,0.3499520008545518,0.36860476443844414,0.38255433678517387,0.39476369794006205,0.40682277925772725,0.42052867379407843,0.4345388405109827,0.4522811721443772,0.4818897325594716,0.8008748753581902,0.9525133689839572,0.4068312445292389,0.0,0.9681481481481482,50,526,3580,772093,no_split,wide,individual,1,0.7086048126220703
0,0.0,0.45528273789850743,0.36378025253483187,0.38775414193762847,0.4059580583683174,0.42387530513560856,0.44103551107186334,0.45934165155026563,0.4818688006081226,0.5133897523285862,0.5636487746564485,1.0559787874616093,0.963076923076923,0.46728467508414406,0.0,0.9243093922651934,50,526,3625,772093,no_split,wide,individual,1,0.7088232040405273
1,1.0,0.479419967127399,0.37656725511309896,0.4037471904379789,0.4253618997737893,0.44659541864274965,0.46674807657011763,0.4886247907820992,0.5147025584760501,0.5488538594479921,0.598708597758053,1.1014087492141518,0.8851111111111111,0.46728467508414406,0.0,0.9243093922651934,50,526,3625,772093,no_split,wide,individual,1,0.7088232040405273
0,0.0,0.5395880773036094,0.4287034394715752,0.4575318057250529,0.48084204891835286,0.5027930207136848,0.5242350903827027,0.5477580896031055,0.5767882261580689,0.612440361391158,0.673159834273482,1.184641279982513,0.9942408376963351,0.5500547508466855,0.0,0.9877690288713911,50,526,3754,772093,no_split,wide,individual,1,0.7099018096923828
1,1.0,0.5605765121452515,0.4461191830845241,0.4783321751542163,0.5040330559257713,0.5265801197969991,0.549121362970165,0.5729573330605898,0.6002931611251687,0.6366439654892733,0.6886913040671261,1.2214352307609897,0.9812631578947368,0.5500547508466855,0.0,0.9877690288713911,50,526,3754,772093,no_split,wide,individual,1,0.7099018096923828
0,0.0,0.4041572766820601,0.3327463678438581,0.35198463433845706,0.3660847924742496,0.37913688142710006,0.3919664117261594,0.4072929360375078,0.42506496527481913,0.4492805574130392,0.49112686336793576,0.8372068178659687,0.9663492063492064,0.4102425606665698,0.0,0.9478627968337731,50,526,3910,772093,no_split,wide,individual,1,0.7106025218963623
1,1.0,0.4162958168406347,0.34114872278343417,0.3611731903696945,0.37676108574996925,0.3913567062369881,0.40592145736707197,0.42289803906576734,0.4414736612209166,0.4653086976597559,0.5047704994462541,0.8710721992532674,0.9294736842105263,0.4102425606665698,0.0,0.9478627968337731,50,526,3910,772093,no_split,wide,individual,1,0.7106025218963623
0,0.0,0.40460221184146755,0.334913104679886,0.3514807792385973,0.36476979625598765,0.37784102386345175,0.3908625479010097,0.40707405795102425,0.42535177858850864,0.45101674171712697,0.4947670241697659,0.7907414327089678,0.9803157894736843,0.40494378372281936,0.0,0.9646965699208443,50,526,4222,772093,no_split,wide,individual,1,0.709052562713623
1,1.0,0.4052871628628027,0.34469541273182547,0.3623828067300833,0.37549567168689585,0.3877162528025728,0.39945016698092056,0.4119317683429839,0.42570912603414013,0.44341395735217254,0.4721530813563977,0.7337416955185538,0.948994708994709,0.40494378372281936,0.0,0.9646965699208443,50,526,4222,772093,no_split,wide,individual,1,0.709052562713623
0,0.0,0.4385928377885137,0.34016431317697043,0.3642141169275513,0.3826582967027117,0.400585183852352,0.4185100138006077,0.4388915710709846,0.46534886576013046,0.49921695340019756,0.5615365813277817,1.2999694584483628,0.9406349206349206,0.44912235110062676,0.0,0.8970370370370371,50,526,4264,772093,no_split,wide,individual,1,0.7089455127716064
1,1.0,0.4596518644127397,0.3561386460596719,0.3828677754683381,0.40310475258796824,0.4231612700476975,0.44388725264586093,0.4655694707094202,0.49271826796803797,0.5273903832129202,0.5827905264104674,1.2016791206166606,0.8534391534391534,0.44912235110062676,0.0,0.8970370370370371,50,526,4264,772093,no_split,wide,individual,1,0.7089455127716064
0,0.0,0.4265220698202569,0.3703347556034029,0.3848788616960376,0.3963172101815808,0.4068175428590863,0.4172627621313335,0.42873517812194156,0.4429283170882073,0.46264120664518976,0.4943645630083905,0.7971942444479962,0.9751063829787234,0.43096756657756324,0.0,0.9680533333333333,50,526,5281,772093,no_split,wide,individual,1,0.7097103595733643
1,1.0,0.43543683604480166,0.3757274821462886,0.3916424561247077,0.40391024226406663,0.415704266834807,0.426977267009998,0.43984800792940104,0.4541035190596979,0.47509989174833,0.5068767720417849,0.9207878045782382,0.9609625668449198,0.43096756657756324,0.0,0.9680533333333333,50,526,5281,772093,no_split,wide,individual,1,0.7097103595733643
0,0.0,0.45875232997373444,0.36939678818425936,0.3914883339197205,0.4096585227826068,0.4261815104812645,0.4433514060116228,0.4630244926116101,0.48665289432321124,0.5174597990322671,0.5683499249767217,1.0717726018084224,0.9925925925925926,0.46779969386922815,0.0,0.9859733333333334,50,526,5332,772093,no_split,wide,individual,1,0.7109973430633545
1,1.0,0.47699298298884274,0.3803312945295755,0.4066334981837425,0.4270468114053936,0.44515700401585984,0.46491491851961536,0.48548547198544173,0.5091612966739227,0.5404596819262837,0.5872645932602694,0.974761906322273,0.979247311827957,0.46779969386922815,0.0,0.9859733333333334,50,526,5332,772093,no_split,wide,individual,1,0.7109973430633545
0,0.0,0.43685229541094583,0.3555180177023988,0.375933983661979,0.39284009063671166,0.4076269690955876,0.4230257988425055,0.4396831703306141,0.46037298513107683,0.48803999658863906,0.5353614468900941,1.2038570047188395,0.9805263157894737,0.44795405112273085,0.0,0.9538786279683378,50,526,5575,772093,no_split,wide,individual,1,0.7102110385894775
1,1.0,0.4591145462827263,0.369207345732062,0.3948700383039011,0.4139523774624846,0.43127684433717384,0.44857209953690547,0.46695346402838334,0.48974870487514466,0.5179070929461591,0.5616682536525958,1.0101980237075343,0.9270899470899471,0.44795405112273085,0.0,0.9538786279683378,50,526,5575,772093,no_split,wide,individual,1,0.7102110385894775
0,0.0,0.43113127844165006,0.35431038617282684,0.37214577373073926,0.38670996251030637,0.399681809702366,0.4150223754388655,0.4314725290264393,0.45225578212355644,0.4823016358219632,0.5311370107737126,1.104318382534165,0.9544262295081967,0.4386335051708621,0.0,0.9211320754716981,50,526,5731,772093,no_split,wide,individual,1,0.712390661239624
1,1.0,0.4459362045934462,0.364382941094153,0.3851601449804847,0.4019060761356832,0.41796221255252186,0.43388946591289623,0.4516883802682051,0.4717946630689035,0.4988006251532074,0.5414802297470623,0.9775314831135037,0.8887234042553191,0.4386335051708621,0.0,0.9211320754716981,50,526,5731,772093,no_split,wide,individual,1,0.712390661239624
0,0.0,0.4215331584107308,0.34347894387987654,0.3669755547933328,0.3842291921962019,0.39942664940706535,0.41388538808583264,0.4297220053086054,0.44784669427554796,0.4704246965909586,0.5068598204010141,0.9186615765676024,0.9909574468085106,0.43376818207111284,0.0,0.9670557029177719,50,526,5761,772093,no_split,wide,individual,1,0.7092361450195312
1,1.0,0.44593847015657223,0.3624803839128316,0.3877425150826715,0.4072256414642259,0.42448469200198,0.4406882619324266,0.4576292021629874,0.4771266439174495,0.5001157678902646,0.5358289328742292,0.8516533339080344,0.9432804232804233,0.43376818207111284,0.0,0.9670557029177719,50,526,5761,772093,no_split,wide,individual,1,0.7092361450195312
0,0.0,0.4106556880035941,0.32402201421746196,0.3471229860689527,0.36418903244066547,0.3797921464167694,0.3961510719160382,0.4140368751673448,0.43619950978499367,0.46561824487873515,0.5151226086921905,0.9811571987693322,0.906875,0.4141627635645951,0.0,0.8784895833333334,50,526,5803,772093,no_split,wide,individual,1,0.7184154987335205
1,1.0,0.4176698391255961,0.33292478555628396,0.3561043758357459,0.3735879828105772,0.39062217547513384,0.40754045455773746,0.42474295091525116,0.4467714702522105,0.47357746930008426,0.5131825525142406,0.9010742745018446,0.8501041666666667,0.4141627635645951,0.0,0.8784895833333334,50,526,5803,772093,no_split,wide,individual,1,0.7184154987335205
0,0.0,0.48838753369846066,0.3794247287653567,0.40626134015693743,0.42860571071600573,0.4484416575588152,0.4686805793509231,0.4920701933829632,0.5199198524254264,0.5586743909566867,0.6224327075074485,1.238291012934004,0.9795833333333334,0.5026960068099633,0.0,0.9593717277486911,50,526,5815,772093,no_split,wide,individual,1,0.7089977264404297
1,1.0,0.5171550954279028,0.3941663732856028,0.4266319321317186,0.4527879774525315,0.4784476736634557,0.5019566449631381,0.5283134652675929,0.558594399214077,0.5968022223466429,0.659396051243711,1.2654579010156564,0.9389473684210526,0.5026960068099633,0.0,0.9593717277486911,50,526,5815,772093,no_split,wide,individual,1,0.7089977264404297
0,0.0,0.4092308222050909,0.3484038289997614,0.36427553552552644,0.3765488478795861,0.38826432467722255,0.39997950991122266,0.41347013026862395,0.4284498660592393,0.4486597724665614,0.4807939086089576,0.9021506691137872,0.992,0.422662864428071,0.0,0.9835449735449735,50,526,6055,772093,no_split,wide,individual,1,0.7107391357421875
1,1.0,0.436237800717253,0.3591643546432885,0.38021964698672645,0.39710063229424675,0.4121953825463309,0.42743058426884806,0.44438754348483334,0.46342596388151636,0.48788211161592726,0.525171298122911,0.8295278641883292,0.975,0.422662864428071,0.0,0.9835449735449735,50,526,6055,772093,no_split,wide,individual,1,0.7107391357421875
0,0.0,0.4505865067318597,0.348970202131351,0.37253682893447443,0.39265120682397964,0.4114545978597042,0.43161054846790436,0.45395144685966987,0.4798504966354516,0.5162533332871523,0.5790253251017862,1.2954344931497082,0.9661621621621621,0.4580531845306772,0.0,0.9413404825737265,50,526,6109,772093,no_split,wide,individual,1,0.7082662582397461
1,1.0,0.4654007132156837,0.3616748443459523,0.38988413465365995,0.41066071920600283,0.4319626261838824,0.45217810246024837,0.47511940959545634,0.4998445375231595,0.5322888612625952,0.5841117530288582,1.0809069861472316,0.9169148936170213,0.4580531845306772,0.0,0.9413404825737265,50,526,6109,772093,no_split,wide,individual,1,0.7082662582397461
0,0.0,0.3809945752222642,0.3252983988398584,0.3398286526588804,0.35135886163578123,0.3623347255238784,0.3725870325104744,0.3839715663590201,0.39762060073759514,0.4161701246798221,0.44710278237358686,0.8129695960901262,0.9790575916230366,0.3927558252576168,0.0,0.9665796344647519,50,526,6214,772093,no_split,wide,individual,1,0.7101914882659912
1,1.0,0.4044558187823687,0.33029006281075146,0.3475010976760737,0.3629824670387184,0.3771422543344101,0.39310046703460977,0.4089367840056795,0.4286755152126966,0.4548122636751625,0.49511705420908236,0.7882864950078379,0.9541666666666667,0.3927558252576168,0.0,0.9665796344647519,50,526,6214,772093,no_split,wide,individual,1,0.7101914882659912
0,0.0,0.45920366707064797,0.3508204071381936,0.38054149629902395,0.4031830514226695,0.4232129276388902,0.4441856038552767,0.46696404815091674,0.4941512728534868,0.5318961968069545,0.5872496322851701,1.1046736106693442,0.9577777777777777,0.45533076913571047,0.0,0.9376190476190476,50,526,6253,772093,no_split,wide,individual,1,0.7078661918640137
1,1.0,0.45145787120077285,0.3601754017600918,0.3870359279908024,0.4065466044753358,0.4257810532986796,0.4446565157815009,0.46271220660077617,0.48294673186528175,0.5098627629389373,0.5506596349933465,1.1057396232095948,0.9174603174603174,0.45533076913571047,0.0,0.9376190476190476,50,526,6253,772093,no_split,wide,individual,1,0.7078661918640137
0,0.0,0.4516437925951627,0.3681500570738749,0.39160923297321054,0.40925874223923764,0.4254781465282388,0.44149323734521423,0.45835812163604855,0.4794227624054975,0.505505117922666,0.5492172468628532,0.9494136491279778,0.9848421052631579,0.45612796980766845,0.0,0.9748031496062992,50,526,6262,772093,no_split,wide,individual,1,0.7092466354370117
1,1.0,0.46058866965256945,0.3773038179953849,0.4009685838794561,0.4194361269767838,0.43650767099620424,0.4524899762186868,0.47011149721617407,0.4892273302299092,0.5139689596242283,0.5536416426752522,0.8735455662539605,0.9648167539267015,0.45612796980766845,0.0,0.9748031496062992,50,526,6262,772093,no_split,wide,individual,1,0.7092466354370117
0,0.0,0.48779669460776215,0.3932136005958919,0.41532332124613397,0.4338520473601649,0.45234997146992584,0.4705779327285782,0.4910893514297586,0.5169589986121043,0.5511789685206713,0.6081328585373675,1.1100872476343555,0.9952631578947368,0.5003018054045947,0.0,0.9826315789473684,50,526,6361,772093,no_split,wide,individual,1,0.709650993347168
1,1.0,0.512806916201427,0.41558109843477975,0.44615927807186617,0.4664396608377627,0.4848449423544864,0.503661143042278,0.5227478508220553,0.5459798526540017,0.5746632888770032,0.6175710999755938,1.0978134518892266,0.97,0.5003018054045947,0.0,0.9826315789473684,50,526,6361,772093,no_split,wide,individual,1,0.709650993347168
0,0.0,0.4051626350886969,0.33922888968878273,0.35723193913886964,0.3705660732300287,0.38269408883980477,0.3957663871929783,0.4095743035146624,0.4263144029652302,0.4475200525511386,0.4829775611700912,0.7866373775642853,0.9851578947368421,0.40893661879230553,0.0,0.9701846965699208,50,526,6427,772093,no_split,wide,individual,1,0.7106685638427734
1,1.0,0.41273057066365815,0.34765673665564495,0.36708898145621843,0.381778239673514,0.394194277074187,0.4064605304964301,0.41961289985685074,0.43555852534445516,0.45499959798837514,0.4847120873676533,0.8310332444440849,0.9551322751322752,0.40893661879230553,0.0,0.9701846965699208,50,526,6427,772093,no_split,wide,individual,1,0.7106685638427734
0,0.0,0.4461525700929876,0.3754494958263307,0.395446540123138,0.41016789060291564,0.423157890932033,0.43691265203359597,0.4513454181164702,0.46854090546116767,0.49066221113678005,0.5265263032922344,1.0128558530979594,0.9651063829787234,0.4529442679741575,0.0,0.9483733333333333,50,526,6583,772093,no_split,wide,individual,1,0.7093708515167236
1,1.0,0.4597722850953336,0.38034131415821926,0.4023553982462848,0.4190529460879641,0.4347427395556723,0.4500054133883005,0.46697045671406234,0.48566118977288714,0.5112780474360719,0.551419210587021,0.8298194003618248,0.9315508021390374,0.4529442679741575,0.0,0.9483733333333333,50,526,6583,772093,no_split,wide,individual,1,0.7093708515167236
0,0.0,0.4318376893670183,0.35166097088635556,0.3738136728793465,0.39135658387168104,0.40660664985457445,0.42184065229461465,0.43933578407832974,0.4581661579466396,0.48304698712241045,0.5236464018534347,0.9799413692107839,0.9736507936507937,0.44368496780133554,0.0,0.9516042780748664,50,526,6634,772093,no_split,wide,individual,1,0.7085051536560059
1,1.0,0.4557884036072055,0.3611025213540908,0.38737520705649975,0.4075473947023915,0.4268926009831476,0.4459015373434381,0.46614428755657256,0.4898494973610199,0.5196133400039953,0.5640706345393149,0.9054891468059186,0.9290810810810811,0.44368496780133554,0.0,0.9516042780748664,50,526,6634,772093,no_split,wide,individual,1,0.7085051536560059
0,0.0,0.45479320803772216,0.3749028042995374,0.39672859931893045,0.41422645966734667,0.42966108369006095,0.44569912795612565,0.4624280031643722,0.48030926285149284,0.5055797965092391,0.5449481663365935,0.9313007340887943,0.9816666666666667,0.45607812667946157,0.0,0.9648563968668408,50,526,6844,772093,no_split,wide,individual,1,0.7087016105651855
1,1.0,0.45736977264393264,0.3868238647257087,0.4084899614142129,0.4244554975655594,0.4392925803229335,0.45345626006529705,0.46770124227278603,0.4831732957994255,0.5028393241296015,0.5334814984802468,0.901621957677203,0.947958115183246,0.45607812667946157,0.0,0.9648563968668408,50,526,6844,772093,no_split,wide,individual,1,0.7087016105651855
0,0.0,0.43020100931235833,0.34358974473387865,0.36640787087279886,0.38446051257164204,0.4007069245986888,0.41626252299129884,0.4334813105188047,0.45428391434690446,0.4822166426291253,0.531853487031397,1.1270144342332986,0.9848421052631579,0.4493485041586482,0.0,0.9405759162303665,50,526,7624,772093,no_split,wide,individual,1,0.7089447975158691
1,1.0,0.4682965459336226,0.3657248510958433,0.39544699668130207,0.41842259847783553,0.43872080754490084,0.45871416968669965,0.48031101318059666,0.5037893429475279,0.5341098923631326,0.5816213764314822,1.0862889238305922,0.8967708333333333,0.4493485041586482,0.0,0.9405759162303665,50,526,7624,772093,no_split,wide,individual,1,0.7089447975158691
0,0.0,0.4006891757277139,0.3262792263403059,0.345854520726386,0.36137538086192106,0.37492336333110515,0.3891241883465168,0.40468118617431714,0.42321741154058207,0.44779422454983436,0.4894587228210329,1.1360540167857502,0.9670833333333333,0.40672439927481957,0.0,0.9405235602094241,50,526,7756,772093,no_split,wide,individual,1,0.7237803936004639
1,1.0,0.4128231514908421,0.3353829136894871,0.35764325208346803,0.3740851328910397,0.38928081177457186,0.404026091107865,0.42075006968578244,0.43934022535047607,0.46193976449547614,0.5000609773958163,0.8582872666456713,0.9136842105263158,0.40672439927481957,0.0,0.9405235602094241,50,526,7756,772093,no_split,wide,individual,1,0.7237803936004639
0,0.0,0.40915330389740984,0.3185342240381696,0.34408446287345856,0.36270045782294263,0.3810230183812493,0.39890677663170965,0.4172130057527595,0.4376263842157377,0.4655141197273117,0.5110254395595183,0.9984320065774743,0.9753191489361702,0.4199978783044799,0.0,0.9368364611260054,50,526,7768,772093,no_split,wide,individual,1,0.7250020503997803
1,1.0,0.4310183106749079,0.3359805756638094,0.3642342398978003,0.3858532612500294,0.4049814921741414,0.42480609083596593,0.44368525455343255,0.4647458943462915,0.4927699775198877,0.534433778095585,1.043282586626927,0.8977297297297298,0.4199978783044799,0.0,0.9368364611260054,50,526,7768,772093,no_split,wide,individual,1,0.7250020503997803
0,0.0,0.39959523582684775,0.3088868307703226,0.3320385989509398,0.35014769852037947,0.36630902131179216,0.3834393014504615,0.40246624964373434,0.4250835449169691,0.45888508971148523,0.5126859060857766,1.0949126685460817,0.9447120418848167,0.40041323233747167,0.0,0.9156020942408377,50,526,7807,772093,no_split,wide,individual,1,0.72540283203125
1,1.0,0.4012312288480956,0.31869966967702706,0.34107992532029346,0.35990043310120184,0.37608070396400173,0.39238024671043004,0.40970949822286046,0.4290710059595428,0.45397469718711836,0.49512654021405533,0.8631334515469405,0.8864921465968586,0.40041323233747167,0.0,0.9156020942408377,50,526,7807,772093,no_split,wide,individual,1,0.72540283203125
0,0.0,0.3886677800483258,0.3199831679390498,0.33471957506573086,0.347240170838714,0.35983865606121446,0.372981872928709,0.38711388966261817,0.40541591130494803,0.43051044949637096,0.479589574135617,1.0768386749839243,0.966875,0.3951024515840737,0.0,0.9412073490813648,50,526,7813,772093,no_split,wide,individual,1,0.726137638092041
1,1.0,0.40163926076324624,0.32875114329460525,0.3464971065481205,0.3613087297258611,0.37575485725523466,0.39032067776421553,0.4055756153675618,0.42402002545361084,0.4489620642152565,0.4890583923695042,0.9484665832738013,0.9151322751322751,0.3951024515840737,0.0,0.9412073490813648,50,526,7813,772093,no_split,wide,individual,1,0.726137638092041
0,0.0,0.4069503143843057,0.3479893395860708,0.36420462064791087,0.37750843271520296,0.3892139869456377,0.4013775143449766,0.41380574409263626,0.4274754566618286,0.44510534417359937,0.472842199358685,0.7658557146833244,0.9835602094240837,0.41260679824790897,0.0,0.9756544502617801,50,526,7828,772093,no_split,wide,individual,1,0.7274215221405029
1,1.0,0.41826328211151237,0.35307308833772644,0.37181958416004585,0.38641530863397894,0.3992143131952768,0.41167307493252314,0.4249119823149574,0.4404641838678521,0.46046972833937794,0.4921063257627722,0.7807324578404378,0.9677486910994765,0.41260679824790897,0.0,0.9756544502617801,50,526,7828,772093,no_split,wide,individual,1,0.7274215221405029
0,0.0,0.5422209731955152,0.3968663006720703,0.4277657851803134,0.45299873587325057,0.47896846457940784,0.505662515328382,0.538479404525197,0.5796344307142408,0.6360547292984863,0.7368414670035902,1.4935432229494687,0.9635978835978836,0.5535849201493434,0.0,0.9469148936170213,50,526,7840,772093,no_split,wide,individual,1,0.7342510223388672
1,1.0,0.5650704066427847,0.41104389410645126,0.44600335426448356,0.4760589586127371,0.504788895404023,0.5359094527356144,0.5701124066725433,0.6136277620440117,0.6679973787458415,0.7548701696989664,1.4329823940350117,0.9300534759358289,0.5535849201493434,0.0,0.9469148936170213,50,526,7840,772093,no_split,wide,individual,1,0.7342510223388672
0,0.0,0.4593150921407004,0.36853327632750865,0.39111536094291277,0.4100338834765877,0.42803471575917934,0.4460589552558001,0.46657168333062166,0.49133271593531275,0.5211783500180887,0.5666539791854025,0.9458375140597061,0.9985340314136125,0.4652136775161674,0.0,0.9941884816753926,50,526,7924,772093,no_split,wide,individual,1,0.7131047248840332
1,1.0,0.4711122628916342,0.3889261438296931,0.4122206633190334,0.4308772542708007,0.447325097663839,0.46354701184286756,0.48119467237711905,0.5006785599442558,0.5254217199624456,0.5634720726294844,0.8112855255506537,0.9898429319371728,0.4652136775161674,0.0,0.9941884816753926,50,526,7924,772093,no_split,wide,individual,1,0.7131047248840332
0,0.0,0.4432364436361453,0.3671073798247162,0.38789314746540177,0.4038502268225905,0.41850503054555105,0.43401275559046715,0.4494954923398816,0.46825546127640355,0.4922062974298942,0.5304637766266372,0.8569612318905904,0.9907936507936508,0.4531109233636064,0.0,0.9830769230769231,50,526,7939,772093,no_split,wide,individual,1,0.7153003215789795
1,1.0,0.46303792691940515,0.3783126829855176,0.40138514407431647,0.4193090143116901,0.4369002752387523,0.45418955180937187,0.47150215732892764,0.4924058168345281,0.5204014587819529,0.5598837070939239,0.8997623845304745,0.9753191489361702,0.4531109233636064,0.0,0.9830769230769231,50,526,7939,772093,no_split,wide,individual,1,0.7153003215789795
0,0.0,0.4426027797638762,0.34074978781975074,0.36672220876255235,0.3862712410632379,0.4032053655677412,0.42191457720406433,0.44339241434848625,0.47018750463847697,0.5069710527362048,0.572738179518882,1.2128608292146505,0.9517977528089888,0.44993416629903626,0.0,0.9100275482093664,50,526,8026,772093,no_split,wide,individual,1,0.7167444229125977
1,1.0,0.4569881490193525,0.3552154774144192,0.38439415794973053,0.40481142009016496,0.4250134698406252,0.4443979782896311,0.46571709913174403,0.490445923799732,0.5225695796348994,0.5708664129360318,1.2801180991285928,0.8698378378378379,0.44993416629903626,0.0,0.9100275482093664,50,526,8026,772093,no_split,wide,individual,1,0.7167444229125977
0,0.0,0.46267866815825276,0.3658676721857316,0.38738755539214315,0.40539113843697105,0.4234641169799902,0.44314809783139697,0.4649854274914926,0.4922792856776248,0.5265686822453826,0.5855559213113862,1.0972584717674585,0.9773684210526316,0.4680441467259271,0.0,0.9629473684210527,50,526,808,772093,no_split,wide,individual,1,0.7188458442687988
1,1.0,0.4734096252936013,0.37690455015048807,0.40201160694048643,0.4220203381184895,0.44065281104840814,0.45933592742373586,0.47962125126156024,0.5017059926573934,0.5348652687468438,0.5874389889942903,1.0726908580081151,0.9485263157894737,0.4680441467259271,0.0,0.9629473684210527,50,526,808,772093,no_split,wide,individual,1,0.7188458442687988
0,0.0,0.42497512850293573,0.33687755256336394,0.3625493594105167,0.38204983019821204,0.3993401672435258,0.4159278559767804,0.43369541698489456,0.45339245754504687,0.4784939768336252,0.522123383734977,1.1062082798460022,0.9475392670157068,0.43991712485163226,0.0,0.9036553524804177,50,526,8311,772093,no_split,wide,individual,1,0.7193467617034912
1,1.0,0.4547812983026793,0.3450830650415095,0.37321846524478675,0.39469496665726117,0.41673921092283733,0.4386653264832705,0.462967349222263,0.492206458721802,0.5288823528932887,0.5873260818659308,0.964541329487779,0.86,0.43991712485163226,0.0,0.9036553524804177,50,526,8311,772093,no_split,wide,individual,1,0.7193467617034912
0,0.0,0.44523172243390424,0.3702066473562895,0.38998365942555985,0.404787116330085,0.41820737573611627,0.4324219181998864,0.448613268481556,0.46701039651993526,0.4925491374007458,0.5354713821253918,0.9644993009578181,0.9685416666666666,0.45289440526658303,0.0,0.934973544973545,50,526,833,772093,no_split,wide,individual,1,0.7201688289642334
1,1.0,0.46080427141644487,0.382195854895862,0.4036740169111399,0.42099286606333597,0.43555285250626236,0.451742783485505,0.46958729676074734,0.4883969207192344,0.5129624434433163,0.5497678359525391,0.9177357008137366,0.9003225806451612,0.45289440526658303,0.0,0.934973544973545,50,526,833,772093,no_split,wide,individual,1,0.7201688289642334
0,0.0,0.5525826300303587,0.3778094392667864,0.4131732747461419,0.44338171362793766,0.4737441268737915,0.5076636438731905,0.54761232597906,0.6023742919279813,0.6717166983326345,0.7915176334386309,1.6252972301723123,0.9441304347826087,0.5627291208345527,0.0,0.9134594594594595,50,526,837,772093,no_split,wide,individual,1,0.7202928066253662
1,1.0,0.5727665095870887,0.4018498702217349,0.44088361514601543,0.47522475456141194,0.5064549519641316,0.540390141734715,0.5767042450758199,0.6210753382710562,0.6805991222574163,0.7833861644647419,1.6255771485576216,0.8831182795698925,0.5627291208345527,0.0,0.9134594594594595,50,526,837,772093,no_split,wide,individual,1,0.7202928066253662
0,0.0,0.38430766078344736,0.31802000331373964,0.3371562582303096,0.3509652047117939,0.364249996669381,0.37711651344485075,0.3904151531434821,0.40524319960658667,0.42503546057209624,0.4589299112026328,0.8280595829205272,0.9829319371727748,0.3919813624220431,0.0,0.962,50,526,8446,772093,no_split,wide,individual,1,0.7199275493621826
1,1.0,0.39973626725258177,0.33031765649498784,0.3501122785313589,0.3656236053147325,0.37991956758959144,0.3930498158599967,0.40755744672905453,0.4238706253906749,0.44395207138427834,0.4768490261767951,0.9728558495842462,0.9408465608465608,0.3919813624220431,0.0,0.962,50,526,8446,772093,no_split,wide,individual,1,0.7199275493621826
0,0.0,0.40923857799013474,0.33973061342306227,0.3584329824102094,0.3721770302381323,0.38615646688988725,0.39993157374174615,0.4146632455087809,0.430888576304856,0.4526629582460717,0.48859286865578133,1.0438796722032089,0.9626455026455026,0.4207189121625726,0.0,0.9386170212765957,50,526,845,772093,no_split,wide,individual,1,0.7292792797088623
1,1.0,0.4323220306577104,0.3447209464858491,0.3662065277266712,0.3832654816442048,0.3998863576244471,0.41678364363281395,0.43653221430104755,0.45989459107143593,0.49349091555891056,0.5405432285814684,0.9640291071473278,0.914331550802139,0.4207189121625726,0.0,0.9386170212765957,50,526,845,772093,no_split,wide,individual,1,0.7292792797088623
0,0.0,0.4770232201726169,0.3840228946861085,0.40886094713059556,0.4277323677361558,0.4450271466732489,0.4629235483089165,0.48063881885326804,0.5046131871730296,0.5364583813321802,0.5872053877467054,1.0289027314914734,0.9512041884816754,0.48198759284534876,0.0,0.93,50,526,8521,772093,no_split,wide,individual,1,0.7379624843597412
1,1.0,0.48700449856223665,0.3959410311927438,0.421189184114567,0.4406606816579097,0.45888666489365604,0.4760831988889003,0.49556483043990723,0.5171624701728289,0.5444255268253791,0.5885788204881752,1.0918368792081976,0.9085714285714286,0.48198759284534876,0.0,0.93,50,526,8521,772093,no_split,wide,individual,1,0.7379624843597412
0,0.0,0.5621488830232116,0.41883467685012615,0.4493759369677811,0.47888334734361615,0.5066091080850167,0.5358316464618265,0.5683322830590908,0.6090535301603677,0.6607470905500521,0.7396588982117592,1.4064874891236805,0.9784782608695652,0.5586473986079832,0.0,0.9725268817204301,50,526,8704,772093,no_split,wide,individual,1,0.7398419380187988
1,1.0,0.5552204138611636,0.4266095691525696,0.4576416940070229,0.4848693551245685,0.5088277784867946,0.5350468595212861,0.5622536079719556,0.5951276841669858,0.6376616030254043,0.7096990756214825,1.3009496960981997,0.9667021276595744,0.5586473986079832,0.0,0.9725268817204301,50,526,8704,772093,no_split,wide,individual,1,0.7398419380187988
0,0.0,0.4396895638692249,0.35568987262619667,0.37739985864426234,0.394711871881703,0.41054604093901786,0.4278379391750745,0.44544533197157254,0.4676555250025122,0.4952090915183752,0.5405277455315658,1.137085685287372,0.9931521739130434,0.4496001591923052,0.0,0.9854794520547945,50,526,8755,772093,no_split,wide,individual,1,0.7397470474243164
1,1.0,0.4596750185262653,0.370368032795529,0.3958634902010342,0.41475177243980843,0.43219093207701204,0.44962293987599333,0.4682109926680445,0.49024115099242466,0.518536969767426,0.5620403257488339,1.0746668465985398,0.9776795580110498,0.4496001591923052,0.0,0.9854794520547945,50,526,8755,772093,no_split,wide,individual,1,0.7397470474243164
0,0.0,0.4349888407157929,0.35148916581148243,0.3726451766351283,0.38952941663388146,0.40531089307107104,0.4208857442858457,0.438639435177296,0.4594881960474862,0.48889200540742855,0.536645346492878,1.031977675323694,0.9654166666666667,0.44352006138092925,0.0,0.9475520833333333,50,526,8785,772093,no_split,wide,individual,1,0.7355363368988037
1,1.0,0.4520512820460656,0.3600185154055112,0.3846551808855511,0.40356869537731277,0.42139386090648673,0.43866064952780714,0.4590271105390047,0.4824337639151697,0.5126652563097357,0.5594553633396256,1.0677355188881115,0.9296875,0.44352006138092925,0.0,0.9475520833333333,50,526,8785,772093,no_split,wide,individual,1,0.7355363368988037
0,0.0,0.4004461381723743,0.321409619106029,0.342997966310759,0.3585848757788944,0.37344502789667244,0.38851108252461364,0.40515592837922976,0.424405784907563,0.4496129257921066,0.491890812956682,1.0650803061565017,0.976931216931217,0.41540324949197227,0.0,0.9574005305039788,50,526,8788,772093,no_split,wide,individual,1,0.7406580448150635
1,1.0,0.430439919914334,0.32839207718654534,0.3548597200100544,0.3756186684792199,0.3958081882072013,0.4155423573277214,0.4387736396638721,0.4665711942274565,0.4987419784319444,0.5486297660556293,0.9337335383364536,0.9377659574468085,0.41540324949197227,0.0,0.9574005305039788,50,526,8788,772093,no_split,wide,individual,1,0.7406580448150635
0,0.0,0.45202935783097603,0.3599231415429521,0.38161400470781903,0.3991853670608402,0.418889784792589,0.436867434472755,0.4566008709728322,0.48099765012501555,0.5111210059333972,0.5604741317030839,1.2447052546143196,0.9666666666666667,0.4733534185731245,0.0,0.945531914893617,50,526,916,772093,no_split,wide,individual,1,0.7411966323852539
1,1.0,0.4949055441360447,0.36191134120951196,0.38670293656561117,0.4091814651569093,0.4336491751062601,0.4635207699890874,0.4980308743509032,0.5361968354914481,0.5929276115937033,0.6791461087242198,1.274982838518648,0.9241711229946524,0.4733534185731245,0.0,0.945531914893617,50,526,916,772093,no_split,wide,individual,1,0.7411966323852539
0,0.0,0.39465011906603514,0.3251324175795827,0.34338449879860505,0.35687310974380065,0.36998211860763686,0.3827603751960391,0.3971571638224403,0.41369500323655395,0.43927561245212476,0.4791207344215715,0.9094500193462384,0.9616842105263158,0.4061996989132966,0.0,0.9228346456692913,50,526,985,772093,no_split,wide,individual,1,0.7404751777648926
1,1.0,0.41768880975612205,0.3370452414924887,0.35788534775897524,0.3744823718442814,0.3902783099692448,0.40697366747254976,0.4240748525572018,0.44446485307120676,0.4705317529034542,0.5120622675584808,1.0694984769473768,0.8841884816753927,0.4061996989132966,0.0,0.9228346456692913,50,526,985,772093,no_split,wide,individual,1,0.7404751777648926
0,0.0,0.4329394540714364,0.35248738352626346,0.3730060727569682,0.38868312362537105,0.4041412178298495,0.4194115923087097,0.4366975696938059,0.4554192263638028,0.48179031110666815,0.5296105854236856,1.059294318343576,0.9839024390243902,0.4523347440739052,0.0,0.9645226130653266,50,526,275,772093,no_split,narrow,individual,1,0.7392740249633789
1,1.0,0.4729359588433669,0.3669391789683389,0.39431724662498835,0.4164130442284785,0.43770978123853216,0.4597178413320081,0.48300546813702033,0.5103613984806391,0.5428666572830301,0.5955489497414916,1.0524012642110712,0.9439378238341969,0.4523347440739052,0.0,0.9645226130653266,50,526,275,772093,no_split,narrow,individual,1,0.7392740249633789
0,0.0,0.4671083970139977,0.37226924250530385,0.3954884850711434,0.4143888276165202,0.4322962009241735,0.450929769757236,0.47208208520515094,0.49817835431229796,0.5324177355315171,0.5829790489234732,1.0481715093745774,0.9837142857142858,0.4697320760396806,0.0,0.9644444444444444,50,526,808,772093,no_split,narrow,individual,1,0.7383608818054199
1,1.0,0.47269429429448373,0.3891825912456907,0.41298092374882844,0.4309277985300313,0.4477822825540797,0.46505873099906225,0.4805877422506188,0.5020030873606676,0.5267077192961868,0.5651398972619307,1.01123950287868,0.9426881720430108,0.4697320760396806,0.0,0.9644444444444444,50,526,808,772093,no_split,narrow,individual,1,0.7383608818054199
0,0.0,0.44414891477166013,0.36920551690496256,0.3909201760125268,0.4075496186965532,0.4220100573408045,0.43645599823644965,0.45126119295097633,0.4684528223657037,0.49036837847758374,0.5261214573421465,0.8912156365585487,0.9665,0.4546632609767423,0.0,0.9115733333333333,50,526,833,772093,no_split,narrow,individual,1,0.7397778034210205
1,1.0,0.46667965663969335,0.3826762657618934,0.4084882450910675,0.4272721942955915,0.44413057575427567,0.46073718691730464,0.47704839886859546,0.49577816823422344,0.5202249304215343,0.5599508203036663,0.8704491285646462,0.8488,0.4546632609767423,0.0,0.9115733333333333,50,526,833,772093,no_split,narrow,individual,1,0.7397778034210205
0,0.0,0.5741901956790957,0.3827455673206983,0.4206813794312297,0.4537188315649351,0.485833398011705,0.5247758171323118,0.5691632388159771,0.624007651053197,0.704349411039152,0.8412471275008244,1.5690022171836173,0.9523560209424083,0.5864747559270093,0.0,0.9106914893617021,50,526,837,772093,no_split,narrow,individual,1,0.740694522857666
1,1.0,0.5991577343451256,0.41065345053366653,0.4544288480622148,0.4916889974335754,0.5282925988347728,0.5670219233342758,0.6085672478905557,0.6541727471770539,0.7234473661850859,0.8314276828649406,1.5738102596756087,0.8676756756756757,0.5864747559270093,0.0,0.9106914893617021,50,526,837,772093,no_split,narrow,individual,1,0.740694522857666
0,0.0,0.41264392126700644,0.3431952577368655,0.363544357417781,0.3780351561647749,0.39157052694561173,0.4043523497461163,0.4185866028716414,0.4358564010107832,0.4561055548746519,0.4898017889179906,0.8078054084143745,0.9698958333333333,0.4222195554847845,0.0,0.9168983957219251,50,526,845,772093,no_split,narrow,individual,1,0.7407338619232178
1,1.0,0.4323213234507921,0.3563669610162498,0.3794995719234293,0.3964541254676402,0.4120888792208731,0.4270587310442666,0.44270315349262673,0.4598311364539266,0.48209182096961567,0.5158402774364977,0.9038411619899949,0.860989010989011,0.4222195554847845,0.0,0.9168983957219251,50,526,845,772093,no_split,narrow,individual,1,0.7407338619232178
0,0.0,0.4532476904193784,0.35351900052958374,0.37615028490068586,0.39403978726954114,0.4125332331592574,0.43132352568049215,0.45265994398995624,0.47829618106549726,0.5136100688550372,0.5775724081791203,1.2925035506602456,0.9798882681564246,0.479905990879544,0.0,0.9550819672131148,50,526,916,772093,no_split,narrow,individual,1,0.7528884410858154
1,1.0,0.505423829287938,0.36992721091332115,0.4014741283627613,0.4310763587439112,0.45754150720131476,0.48533482033067543,0.516541634293422,0.5518960865045907,0.5951946262538015,0.6610364054610383,1.2409335701110775,0.931336898395722,0.479905990879544,0.0,0.9550819672131148,50,526,916,772093,no_split,narrow,individual,1,0.7528884410858154
0,0.0,0.40055378236565314,0.33544704712233514,0.3529195706682619,0.36666292748493007,0.3784258925099005,0.3911955185334994,0.4051854207996637,0.42056939748317185,0.44071438572619254,0.47510580328854574,0.8311767411969493,0.9579661016949153,0.416525701082154,0.0,0.906449864498645,50,526,985,772093,no_split,narrow,individual,1,0.7441940307617188
1,1.0,0.4312498136489283,0.3415840706202463,0.3621480013043854,0.37925891698272224,0.3960259080309309,0.4146754019516792,0.4348796710465282,0.461629090360065,0.49447508725624695,0.5445556848304749,0.9197649216623701,0.8589583333333334,0.416525701082154,0.0,0.906449864498645,50,526,985,772093,no_split,narrow,individual,1,0.7441940307617188
0,0.0,0.3973353276029242,0.33076701546266996,0.34888890365667286,0.3616895133537226,0.37407878448840215,0.3865267495198922,0.3990082087896285,0.4153015687965945,0.43650633773787034,0.47411782484050874,0.9069036249865783,0.9738636363636364,0.4192827963259809,0.0,0.8863157894736842,50,526,1108,772093,no_split,narrow,individual,1,0.745124101638794
1,1.0,0.43821786738116697,0.34674165818887914,0.370859091600319,0.3889066003100168,0.4069802683476468,0.42642057114877263,0.4468226491324033,0.46980103027838466,0.49820137495262046,0.5432266985022093,1.2589203975425027,0.8107843137254902,0.4192827963259809,0.0,0.8863157894736842,50,526,1108,772093,no_split,narrow,individual,1,0.745124101638794
0,0.0,0.4241606171269896,0.34169856175154883,0.3651347703001811,0.3828145044041814,0.39813042026394674,0.41345326575066355,0.4303002498812272,0.448322354451557,0.4744074613067784,0.5175515778241939,0.9430065843397634,0.9644221105527638,0.43892276054470014,0.0,0.8851597051597052,50,526,1507,772093,no_split,narrow,individual,1,0.7434391975402832
1,1.0,0.45304615737222126,0.3610969683623945,0.38691826749611136,0.406998281457759,0.42589952986943375,0.44404507688180767,0.46380063153977164,0.48590625117699354,0.5123180903467859,0.5554743494099984,0.964952984032664,0.8093269230769231,0.43892276054470014,0.0,0.8851597051597052,50,526,1507,772093,no_split,narrow,individual,1,0.7434391975402832
0,0.0,0.4437078301585566,0.358263327390842,0.3821279546807051,0.39973200898562483,0.4172801610477341,0.4332948562641788,0.45134105402562946,0.47190180606633575,0.4965153078236667,0.5371981601188016,1.2258988736113103,0.9753763440860215,0.45798275828151425,0.0,0.9548167539267016,50,526,1538,772093,no_split,narrow,individual,1,0.7427637577056885
1,1.0,0.4715293737451372,0.36878794444240987,0.39574892647542304,0.41666433886349996,0.43722111551057996,0.4578116239791237,0.4802977624170921,0.506369777013338,0.5397839441361294,0.5925460097631715,0.9990259837729449,0.9353061224489796,0.45798275828151425,0.0,0.9548167539267016,50,526,1538,772093,no_split,narrow,individual,1,0.7427637577056885
0,0.0,0.45780590032672325,0.3667681105611595,0.3896889006301832,0.4074543003479749,0.42305502595352745,0.4395251593286779,0.4580741944194626,0.48178641340586825,0.5141349249508768,0.571479027567012,1.040059615785706,0.9976595744680851,0.4842142624161932,0.0,0.9627322404371584,50,526,1582,772093,no_split,narrow,individual,1,0.7401280403137207
1,1.0,0.5121062403533863,0.40707659205967095,0.4398153178761703,0.4637236837518426,0.4854981522171677,0.5056632628718634,0.5255610886258775,0.5500665502419478,0.5790218341176894,0.6244458216178741,1.0203730514119647,0.9258426966292135,0.4842142624161932,0.0,0.9627322404371584,50,526,1582,772093,no_split,narrow,individual,1,0.7401280403137207
0,0.0,0.4304883727633369,0.3474160118530713,0.36719388555665666,0.3827479419819954,0.3972476107170646,0.4110717879013628,0.42722727779306396,0.44778012872575873,0.4776333809710646,0.5360854607696568,1.1448628006586357,0.9899497487437185,0.45831823823348733,0.0,0.9067167919799499,50,526,1583,772093,no_split,narrow,individual,1,0.7398386001586914
1,1.0,0.48600895437628705,0.3761309840712509,0.4059625475076053,0.4314544162597569,0.4553743816758576,0.4768326667655578,0.49930517420555026,0.5248570557205269,0.5549585402767311,0.6057008993715457,1.0856846745202724,0.8239,0.45831823823348733,0.0,0.9067167919799499,50,526,1583,772093,no_split,narrow,individual,1,0.7398386001586914
0,0.0,0.5423440629774272,0.4008713581326967,0.42725800978938966,0.4507861860072028,0.4739544449213857,0.5018267650543302,0.5350562071240464,0.5788509333120401,0.6357492042522966,0.7457555897270256,1.519418558726631,0.9520218579234973,0.5560692720301572,0.0,0.9196153846153846,50,526,1597,772093,no_split,narrow,individual,1,0.739525556564331
1,1.0,0.5699461408514257,0.4186711475307282,0.45398897804191646,0.4832299953394627,0.5118021723231253,0.5437264046845064,0.5774785937434816,0.6158148566028065,0.6660348647379613,0.7499619938978014,1.4957602973997486,0.8868508287292818,0.5560692720301572,0.0,0.9196153846153846,50,526,1597,772093,no_split,narrow,individual,1,0.739525556564331
0,0.0,0.40557615324181234,0.32826801415132284,0.3495838036409254,0.3661653291827615,0.3814005279287853,0.39586338407859106,0.41165061184273544,0.42984969995801847,0.45339699203369543,0.49226792436668115,0.960008196315589,0.9820765027322405,0.4312891625335567,0.0,0.95568,50,526,1601,772093,no_split,narrow,individual,1,0.7392630577087402
1,1.0,0.45579687451475054,0.34359349439852543,0.37133482232868037,0.39251395220140817,0.41559779761172483,0.4397421195035191,0.4647670441075769,0.4968712482341584,0.5360099416088242,0.5905674328787964,1.057258980886814,0.9305208333333334,0.4312891625335567,0.0,0.95568,50,526,1601,772093,no_split,narrow,individual,1,0.7392630577087402
0,0.0,0.48001600766445335,0.36386884917324436,0.390954750322257,0.4127223633153838,0.432111753209733,0.45328121226396684,0.4774620837044726,0.5098210263509896,0.5546943601092682,0.6342582800200378,1.326813620845862,0.9844554455445544,0.4973982343125602,0.0,0.947258064516129,50,526,1614,772093,no_split,narrow,individual,1,0.7368829250335693
1,1.0,0.518052409506193,0.39815987177785456,0.4316652661036058,0.4576518378375914,0.4819716152671635,0.5058560940310508,0.5309124833452805,0.561039647603718,0.5947610226490637,0.6525574194086627,1.0671779104180747,0.9030588235294118,0.4973982343125602,0.0,0.947258064516129,50,526,1614,772093,no_split,narrow,individual,1,0.7368829250335693
0,0.0,0.4573897626126482,0.3712354767597551,0.39632766966903255,0.4153478912449092,0.4318569541816908,0.4476798507165657,0.4650972503181072,0.48402643763431,0.5110374475699607,0.5519530365574319,1.1190273359846075,0.9851933701657458,0.4808985584918607,0.0,0.954421052631579,50,526,1638,772093,no_split,narrow,individual,1,0.7220966815948486
1,1.0,0.5022809306232048,0.3911439234656989,0.42198526044802237,0.44612555238666673,0.46900091846939074,0.4900897741150678,0.515157283569273,0.5416908794748807,0.5769846430261436,0.6286261671923916,1.2402001853320925,0.9264321608040201,0.4808985584918607,0.0,0.954421052631579,50,526,1638,772093,no_split,narrow,individual,1,0.7220966815948486
0,0.0,0.38735733278224277,0.3212166846833909,0.34012609941417166,0.3543736192304451,0.36651207377154765,0.37902457408393747,0.39294692165347217,0.40857967702471276,0.428490145210739,0.46228177752579147,0.8498821183396712,0.9722448979591837,0.4006731644116782,0.0,0.9064690026954177,50,526,1657,772093,no_split,narrow,individual,1,0.7233657836914062
1,1.0,0.41558689583664593,0.3358809146964843,0.3576927929815205,0.3747314467226512,0.39124738800703096,0.407491793847061,0.42417150183321267,0.4438179082753388,0.46825957684538394,0.5050999931305403,1.0388492053305527,0.8328,0.4006731644116782,0.0,0.9064690026954177,50,526,1657,772093,no_split,narrow,individual,1,0.7233657836914062
0,0.0,0.44948827761235793,0.36736208192847253,0.3891571052398844,0.40612482889498364,0.42067641877579415,0.4361901817857451,0.4530972961909688,0.47318924909717247,0.4994162276961213,0.5467908976086672,1.1654486667998238,0.9895384615384616,0.46887624599353167,0.0,0.9551269035532995,50,526,1663,772093,no_split,narrow,individual,1,0.7245848178863525
1,1.0,0.48787450646754615,0.3933846397758959,0.42069006193164377,0.4413103082747336,0.4608575472809065,0.4801756532351096,0.5003067835850454,0.5214614457564802,0.5504640002379033,0.593195864131775,1.1002656673158735,0.9214070351758794,0.46887624599353167,0.0,0.9551269035532995,50,526,1663,772093,no_split,narrow,individual,1,0.7245848178863525
0,0.0,0.48592842842830264,0.38976033876049,0.4145528039707716,0.43334709137573907,0.4510257102422408,0.46841054769882207,0.4897998437118756,0.5150782210033401,0.5461349546241028,0.6017559427359092,1.2688531279996884,0.9661878453038674,0.5015291802319918,0.0,0.9398895027624309,50,526,1761,772093,no_split,narrow,individual,1,0.7218348979949951
1,1.0,0.5171299320356809,0.40070960383394716,0.4308110236926931,0.4557247558525522,0.47773014927097834,0.5008046111795761,0.527105249317335,0.5569950303644285,0.5960608190350125,0.655745866429415,1.1691071495791407,0.9135911602209945,0.5015291802319918,0.0,0.9398895027624309,50,526,1761,772093,no_split,narrow,individual,1,0.7218348979949951
0,0.0,0.43987909261036756,0.3468270027227926,0.37117131321413244,0.39064996557763726,0.40809360657435195,0.42497577857348035,0.4431727303095241,0.4660253285840357,0.49603120574040427,0.5481261003327705,1.1944712125120527,0.9632608695652174,0.4569112799618559,0.0,0.9315675675675675,50,526,1768,772093,no_split,narrow,individual,1,0.721320390701294
1,1.0,0.4737603255138659,0.3584920382790628,0.38768301789168796,0.41148153675557453,0.4339521284245544,0.45830629589788396,0.48268974779084795,0.5106833769624844,0.5498384507557124,0.6118896494164378,1.1709144639661606,0.9002150537634409,0.4569112799618559,0.0,0.9315675675675675,50,526,1768,772093,no_split,narrow,individual,1,0.721320390701294
0,0.0,0.3685580838380303,0.2914585138229855,0.3140737620437684,0.33003895947599127,0.34463073779224523,0.35898349473848407,0.3738234302452293,0.39134498161370995,0.41506549723405617,0.45516303937415453,0.9140509197069324,0.9708379888268156,0.382820837930614,0.0,0.9079144385026738,50,526,1813,772093,no_split,narrow,individual,1,0.7203233242034912
1,1.0,0.39591331476431907,0.3078942308155616,0.3336395218211342,0.35255381583377254,0.37030310696203905,0.38750766416721044,0.40536162614327753,0.4264276148215745,0.4534974326799677,0.4946964982167332,0.8582403303606522,0.8501538461538461,0.382820837930614,0.0,0.9079144385026738,50,526,1813,772093,no_split,narrow,individual,1,0.7203233242034912
0,0.0,0.39141532194154227,0.3092887398372296,0.3287350414160748,0.34470407783954066,0.35941060805565245,0.37432741280393006,0.3911926841577313,0.41279187540584056,0.44201200682376607,0.4930738903435143,1.2853138538610929,0.9869268292682927,0.41272739230731,0.0,0.9477722772277227,50,526,1821,772093,no_split,narrow,individual,1,0.7226846218109131
1,1.0,0.4346820376589802,0.33280045133202835,0.36027454310787577,0.3836907420165307,0.40379699186503965,0.4245038622055082,0.4444246564993954,0.46898786512794843,0.5010998569454442,0.5503148302839994,1.043447777051589,0.9074371859296483,0.41272739230731,0.0,0.9477722772277227,50,526,1821,772093,no_split,narrow,individual,1,0.7226846218109131
0,0.0,0.3831759099640326,0.31085057122628534,0.3282915347696275,0.3418149831797495,0.35470649302101853,0.36826536809795185,0.38326268702641636,0.40153784438185436,0.42734041261804434,0.4740909037451773,1.0784417042109897,0.9777900552486188,0.39669471302878706,0.0,0.944468085106383,50,526,3286,772093,no_split,narrow,individual,1,0.7227346897125244
1,1.0,0.40924293536068723,0.3235134112353351,0.3453077780547479,0.36282347692576145,0.38052007159217927,0.3982781128752324,0.41693417202389194,0.4381708923411364,0.4645630910217651,0.5094041885783366,1.1075691991241354,0.9135384615384615,0.39669471302878706,0.0,0.944468085106383,50,526,3286,772093,no_split,narrow,individual,1,0.7227346897125244
0,0.0,0.4659314922735232,0.37151190583966015,0.39676208636258575,0.41464019728363766,0.4322594536071556,0.45090339527900813,0.46979108700531175,0.4916320203100508,0.5221493105163397,0.5774603472519785,1.1910308309752489,0.9811363636363636,0.4897537316869606,0.0,0.9498901098901099,50,526,3292,772093,no_split,narrow,individual,1,0.7209804058074951
1,1.0,0.5120554026272,0.39322776831194833,0.42330567855432966,0.4490651348074145,0.47349823303302396,0.4973514332787956,0.5225557184634444,0.5525841039980248,0.5926271351088289,0.6515788116261747,1.1428515275288065,0.9206382978723404,0.4897537316869606,0.0,0.9498901098901099,50,526,3292,772093,no_split,narrow,individual,1,0.7209804058074951
0,0.0,0.3892462121586813,0.3189322721499551,0.3403338289129843,0.3558391910385335,0.36876556029740254,0.38129578729089353,0.394573279018103,0.411004431803046,0.431806178288476,0.46616900678101597,0.8197698130860381,0.9897326203208556,0.41026338192393647,0.0,0.9032207792207793,50,526,3487,772093,no_split,narrow,individual,1,0.7233116626739502
1,1.0,0.4301129311466774,0.3439532373068031,0.3698536679934446,0.38942232199072546,0.40747373422222494,0.4245124989638741,0.441854848738735,0.46252761077025656,0.48690063249603227,0.5214564988104952,0.8804343761117198,0.8215151515151515,0.41026338192393647,0.0,0.9032207792207793,50,526,3487,772093,no_split,narrow,individual,1,0.7233116626739502
0,0.0,0.4051735662649258,0.3483019350473904,0.3666402550170478,0.37941743651737697,0.39137566046805056,0.4015364395156218,0.41296626120455066,0.42575666965146,0.44112550244239745,0.4643831248471287,0.7206459028787301,0.9827860696517413,0.41436619492162874,0.0,0.9050761421319797,50,526,3580,772093,no_split,narrow,individual,1,0.7249789237976074
1,1.0,0.42393986518068205,0.3609354911185579,0.3809095634796222,0.39561745390280395,0.408625350220395,0.4216179937411201,0.434314321486978,0.44848619664609224,0.464967261406023,0.48910009855215414,0.7221393689821016,0.8241450777202073,0.41436619492162874,0.0,0.9050761421319797,50,526,3580,772093,no_split,narrow,individual,1,0.7249789237976074
0,0.0,0.479058299782157,0.37305763493329797,0.3976112542641035,0.41713408115656686,0.4371005140991799,0.4565068212451373,0.47882087316825694,0.5065036797070009,0.5458025187316413,0.6162368926857628,1.268588187539662,0.9413978494623656,0.48523810431231024,0.0,0.8947513812154696,50,526,3625,772093,no_split,narrow,individual,1,0.721104621887207
1,1.0,0.4917690340998585,0.38597369683016236,0.4144146028748553,0.4369259821324894,0.457308108374849,0.47631482217531085,0.49817483877201313,0.5243567562198393,0.5569982222392799,0.614021762989421,1.3666409977408556,0.8454545454545455,0.48523810431231024,0.0,0.8947513812154696,50,526,3625,772093,no_split,narrow,individual,1,0.721104621887207
0,0.0,0.5151371739981367,0.42148356586907954,0.44900989808176256,0.4709529673422976,0.4897177144256773,0.5079330001031284,0.526667215470466,0.5471488027368905,0.5734355895401644,0.6160224594507848,1.1241238625887544,0.9908988764044944,0.5448276945655388,0.0,0.9758265582655826,50,526,3754,772093,no_split,narrow,individual,1,0.7220776081085205
1,1.0,0.5724973943613376,0.4404043712084846,0.4749292693778122,0.5025371393434385,0.531253782915322,0.5584371383961594,0.5886694788233483,0.622557372989266,0.664371466997089,0.7268572041691785,1.176582380785737,0.9617801047120419,0.5448276945655388,0.0,0.9758265582655826,50,526,3754,772093,no_split,narrow,individual,1,0.7220776081085205
0,0.0,0.4058884004649966,0.3327681844275565,0.35246120062526826,0.3686999291799141,0.38254580128179433,0.3968977333948243,0.4118948999409244,0.42937592204159064,0.4517243432575142,0.48852741864788074,0.9818591927276806,0.9927659574468085,0.42096665154666535,0.0,0.9677720207253886,50,526,3910,772093,no_split,narrow,individual,1,0.721583366394043
1,1.0,0.43528337479592655,0.3506099088954342,0.37621428947311736,0.39517437916018033,0.41179892600687146,0.4278351034159441,0.44549993713303515,0.46603316107388837,0.4907475417626911,0.5270225976627262,0.9835453982493184,0.944040404040404,0.42096665154666535,0.0,0.9677720207253886,50,526,3910,772093,no_split,narrow,individual,1,0.721583366394043
0,0.0,0.3934831506577483,0.33476350649456776,0.3481488816733594,0.3596023649757418,0.37015519686082754,0.3813123786568187,0.3942586010180114,0.40955130883654406,0.4310759536594974,0.4682940804594868,0.982893774791204,0.9858563535911602,0.40685094563791624,0.0,0.9606315789473684,50,526,4222,772093,no_split,narrow,individual,1,0.7205009460449219
1,1.0,0.4190095933334458,0.34708503310230693,0.3661636930823765,0.3812081707622144,0.3951721341168471,0.40951013886513277,0.4248565508397204,0.4432704147187188,0.4656794229405925,0.5021267725545533,0.7784807006402418,0.9376884422110553,0.40685094563791624,0.0,0.9606315789473684,50,526,4222,772093,no_split,narrow,individual,1,0.7205009460449219
0,0.0,0.44847370306894624,0.34939338962367994,0.376317869183271,0.39772948885793824,0.4157032937898828,0.43498097766311106,0.4545720407334871,0.4777526307958216,0.5082446231985419,0.5589387019463229,1.2629560873940904,0.9490909090909091,0.46628964768132686,0.0,0.8783879093198993,50,526,4264,772093,no_split,narrow,individual,1,0.7229697704315186
1,1.0,0.4840160649338463,0.36188130468015295,0.3937200282618961,0.41761206000169904,0.44114435069479613,0.46566208571279616,0.49288695836679347,0.5233499284797563,0.565360947734038,0.6298493721754769,1.2610198606401068,0.8080402010050252,0.46628964768132686,0.0,0.8783879093198993,50,526,4264,772093,no_split,narrow,individual,1,0.7229697704315186
0,0.0,0.4222460981764882,0.3565864392796512,0.3760629214731213,0.3902466530143485,0.40355614463945305,0.41568876390903575,0.4294537841506976,0.44444450296679394,0.4636863754138993,0.49405592734121156,0.8674541027282294,0.9912169312169312,0.4372259035193219,0.0,0.9702717391304347,50,526,5281,772093,no_split,narrow,individual,1,0.7217049598693848
1,1.0,0.45304256949583344,0.37323431144263464,0.3954197553207392,0.41318397984551586,0.4293210979063983,0.4450362044752709,0.4624253538917181,0.48177508826213095,0.5065449807481747,0.5426145463844422,0.8634374625483658,0.9481564245810056,0.4372259035193219,0.0,0.9702717391304347,50,526,5281,772093,no_split,narrow,individual,1,0.7217049598693848
0,0.0,0.44459239553903235,0.3634854758119265,0.3828774579352695,0.39982980122622036,0.41483951413370046,0.42991194130240074,0.44737172319189983,0.46665011495412295,0.49517700776299006,0.5441908512907224,0.9837235712100983,0.9970652173913044,0.4685708273544853,0.0,0.9737297297297297,50,526,5332,772093,no_split,narrow,individual,1,0.7195353507995605
1,1.0,0.49229142656977215,0.39478520979685794,0.4239282622425199,0.44575754139038437,0.4655125780373921,0.48488886018090305,0.5054265148515232,0.5273445299571954,0.5532297997581722,0.5960233440129769,1.065188863235634,0.9506451612903226,0.4685708273544853,0.0,0.9737297297297297,50,526,5332,772093,no_split,narrow,individual,1,0.7195353507995605
0,0.0,0.4434379944799755,0.36563065155446006,0.38832479794675884,0.40501823363110256,0.41929451599916573,0.4337425355416157,0.4500537081910472,0.4682567850814193,0.4920922462974882,0.530946752674301,1.0033569429926372,0.9845685279187817,0.45843203031641727,0.0,0.9463076923076923,50,526,5575,772093,no_split,narrow,individual,1,0.7222328186035156
1,1.0,0.47373682337226714,0.38512647308610015,0.4110299556048628,0.43021065344434317,0.44837828897081766,0.4657810989456189,0.484185066412422,0.5050734026494161,0.5327354932002333,0.5724389950971741,0.9052332047608562,0.9072538860103627,0.45843203031641727,0.0,0.9463076923076923,50,526,5575,772093,no_split,narrow,individual,1,0.7222328186035156
0,0.0,0.4399173941144886,0.356522319539088,0.3778571998141173,0.39458252727906323,0.4100495526706847,0.4248973488732547,0.44234539975077447,0.46224666817172205,0.49203912526540805,0.5404407852832228,1.073318723809432,0.9584455958549223,0.448504933146691,0.0,0.8948469387755102,50,526,5731,772093,no_split,narrow,individual,1,0.7217202186584473
1,1.0,0.4568335514040532,0.369998904289345,0.3940171833566014,0.4134621308122538,0.4309277850852874,0.44773613715057237,0.4666620163620579,0.4870711663487937,0.5119413932162732,0.5544476208768881,1.0540463497813861,0.8331658291457287,0.448504933146691,0.0,0.8948469387755102,50,526,5731,772093,no_split,narrow,individual,1,0.7217202186584473
0,0.0,0.43330950255906686,0.35679544465412005,0.3788650822533661,0.39589533772163527,0.4095493018258574,0.4239689910441997,0.44032425164741656,0.4583284378592352,0.4810877644923114,0.5176006002118662,0.8594068530019592,0.9983695652173913,0.45638712061364267,0.0,0.9471934604904633,50,526,5761,772093,no_split,narrow,individual,1,0.7264194488525391
1,1.0,0.4795908458707025,0.3906906601034144,0.419085826546798,0.43995981863471595,0.4588252365977225,0.4759067138999174,0.4941707811871819,0.5140217510604319,0.536987152702307,0.5703937781513869,0.9013076112251768,0.8957377049180328,0.45638712061364267,0.0,0.9471934604904633,50,526,5761,772093,no_split,narrow,individual,1,0.7264194488525391
0,0.0,0.4246268574205958,0.3254744229957584,0.35076514154831967,0.3700735178510171,0.3877194430549862,0.4057726527797644,0.4256864379042574,0.4499271262651711,0.48529502815442194,0.5478770623956697,1.537167793755626,0.9230952380952381,0.4343879047441475,0.0,0.8682926829268293,50,526,5803,772093,no_split,narrow,individual,1,0.7256460189819336
1,1.0,0.44254639205935503,0.3367739232961378,0.36158560929737826,0.3844102391965919,0.40431870364487316,0.4261598779384017,0.45002833173711254,0.4772006570234669,0.5118923944605301,0.569809156319031,1.011365426704705,0.8224875621890547,0.4343879047441475,0.0,0.8682926829268293,50,526,5803,772093,no_split,narrow,individual,1,0.7256460189819336
0,0.0,0.4866713898098325,0.3675665155932379,0.39710145933338975,0.42032506196237673,0.44134805081797995,0.4633058361708343,0.4870640531526631,0.516373929801571,0.5586476121097613,0.6355248363367034,1.358512402060502,0.9729353233830845,0.5058139203127182,0.0,0.9180361757105943,50,526,5815,772093,no_split,narrow,individual,1,0.729609489440918
1,1.0,0.5265002032755143,0.3952054111749456,0.43192905759636435,0.46088145813137993,0.4863703058295288,0.5127251036721563,0.5405963665661784,0.5716906853444423,0.6115108463742925,0.6742272034417701,1.2863998563491286,0.8587096774193549,0.5058139203127182,0.0,0.9180361757105943,50,526,5815,772093,no_split,narrow,individual,1,0.729609489440918
0,0.0,0.41197019915267385,0.3500059839191514,0.3659461830362543,0.37881653099890594,0.3902935979081788,0.4024421904388168,0.41520589743679975,0.4295076944737676,0.4491408557278272,0.48384656972779155,0.9405498978736017,0.9908988764044944,0.43797087334713136,0.0,0.9641961852861035,50,526,6055,772093,no_split,narrow,individual,1,0.7343273162841797
1,1.0,0.46245828078953033,0.36877257637313504,0.39404075418191975,0.4160649739239898,0.4357493644450422,0.454456408904519,0.4747226819142749,0.49596050941354397,0.5232495161868074,0.5669461556568716,0.9619041645145239,0.939047619047619,0.43797087334713136,0.0,0.9641961852861035,50,526,6055,772093,no_split,narrow,individual,1,0.7343273162841797
0,0.0,0.4622022071743389,0.35786969195842927,0.3808573642145672,0.39998303647132083,0.41771921209552704,0.43754082314276266,0.46004197837611566,0.48944304553905954,0.5310071515003367,0.6030183598959518,1.379800512990227,0.9483673469387756,0.4696606531336303,0.0,0.9108743169398907,50,526,6109,772093,no_split,narrow,individual,1,0.7262325286865234
1,1.0,0.478259802592578,0.37132262806891003,0.3984400900444012,0.42126305574351297,0.44220052524541686,0.4623637963499726,0.4856351736208089,0.5123156885246718,0.5468646050308534,0.600633709782379,1.4366912256236963,0.8676470588235294,0.4696606531336303,0.0,0.9108743169398907,50,526,6109,772093,no_split,narrow,individual,1,0.7262325286865234
0,0.0,0.39043455298561297,0.3277585630399466,0.34491090564673205,0.35739826702900135,0.3689195271309505,0.3802712266841264,0.39259703087649767,0.4064639446823974,0.42638317901951606,0.4629385041831817,0.8256848502036721,0.9934905660377359,0.4097467146989276,0.0,0.9060431654676259,50,526,6214,772093,no_split,narrow,individual,1,0.7275445461273193
1,1.0,0.42971831608050176,0.35000631120042014,0.37290913714729806,0.39163478794539097,0.40878583909123456,0.42510767192521837,0.4415203157928485,0.4590146963944354,0.48078284956907974,0.5144008628943384,0.9201846569449911,0.8156097560975609,0.4097467146989276,0.0,0.9060431654676259,50,526,6214,772093,no_split,narrow,individual,1,0.7275445461273193
0,0.0,0.44596668434125053,0.3551870217378622,0.37971370284491823,0.3974560192037946,0.4148332960900867,0.43191168790356294,0.4513763153800341,0.47381210635601506,0.5027887368740389,0.5523659053902615,1.0151480122162142,0.9404255319148936,0.45336716674620464,0.0,0.9055172413793103,50,526,6253,772093,no_split,narrow,individual,1,0.7373049259185791
1,1.0,0.46072849315959813,0.36337311481423173,0.3910627836712789,0.41117289122317746,0.43079180019431657,0.44989173477437405,0.47058196909159333,0.4945131557770924,0.5241955456291232,0.5714523444883565,1.0344328314941982,0.8707936507936508,0.45336716674620464,0.0,0.9055172413793103,50,526,6253,772093,no_split,narrow,individual,1,0.7373049259185791
0,0.0,0.4537312014471005,0.37108447559030805,0.3952587234524437,0.4147732699542014,0.4308512444052252,0.44598819200951856,0.4616984559356295,0.4803683861236477,0.5051070189979203,0.5435761893789308,0.9726141613181046,0.9811049723756906,0.4673636093764044,0.0,0.9201630434782608,50,526,6262,772093,no_split,narrow,individual,1,0.7370679378509521
1,1.0,0.48055861384273607,0.3894733116994922,0.4172114972427894,0.43838366449982896,0.4576603281761032,0.47534305387573,0.4936986305931876,0.5143105962768633,0.5392922044458021,0.5753460330338925,0.8918045826700945,0.8611764705882353,0.4673636093764044,0.0,0.9201630434782608,50,526,6262,772093,no_split,narrow,individual,1,0.7370679378509521
0,0.0,0.4971707274159741,0.4050951511712814,0.4282110946863649,0.44718126098276234,0.46485146570371905,0.48231810362684624,0.5012414549060757,0.5241720037256133,0.5582265403258808,0.612200307894981,0.9840360765115158,0.9918716577540106,0.5091470294997634,0.0,0.9700543478260869,50,526,6361,772093,no_split,narrow,individual,1,0.7354180812835693
1,1.0,0.5215203360725182,0.43027599443383213,0.45646223264450453,0.4770374278073546,0.496302332857029,0.5137644252132967,0.5321786775435039,0.5543627740681921,0.5806742201952142,0.6213027305217447,1.0937991427346285,0.9475138121546961,0.5091470294997634,0.0,0.9700543478260869,50,526,6361,772093,no_split,narrow,individual,1,0.7354180812835693
0,0.0,0.40739969291608125,0.33495182242022586,0.35606887267672893,0.372488381363185,0.38658073502406365,0.3997061428133381,0.4139118186320777,0.42993555130181504,0.4512171452047928,0.4881965057912711,0.8042277337671148,0.9730054644808743,0.4180277374250866,0.0,0.9203157894736842,50,526,6427,772093,no_split,narrow,individual,1,0.739048957824707
1,1.0,0.42790048943091397,0.3502963403061121,0.3734967338908384,0.3905305896061185,0.406346623094215,0.42111400294775675,0.4375950282824254,0.45642756056630523,0.4785271923429467,0.5120377540923067,0.9358947907956681,0.8713705583756345,0.4180277374250866,0.0,0.9203157894736842,50,526,6427,772093,no_split,narrow,individual,1,0.739048957824707
0,0.0,0.4531249279848087,0.37817835890707857,0.396174951734751,0.4101159372346305,0.4256295477736505,0.43962993940080963,0.4558572203213415,0.4751044579758721,0.5010874763563773,0.5457292758493624,0.9237940794288304,0.9607329842931938,0.45953652402193773,0.0,0.9261741424802111,50,526,6583,772093,no_split,narrow,individual,1,0.7462646961212158
1,1.0,0.46605043276178704,0.39065999940324087,0.41148771939209067,0.42794209945221945,0.4429293379503762,0.4572543156987573,0.4730165805434157,0.49120993212613406,0.5138855743630433,0.5507919630775512,0.9772735164215257,0.8910638297872341,0.45953652402193773,0.0,0.9261741424802111,50,526,6583,772093,no_split,narrow,individual,1,0.7462646961212158
0,0.0,0.4332295084310267,0.3536181684005934,0.37632406643763044,0.3924420618400663,0.40752571568603574,0.4223827978836372,0.43851283453708056,0.4572036147888938,0.4809679401606712,0.5227181815644315,0.9776076024312831,0.9876923076923076,0.45572881076740657,0.0,0.9351794871794872,50,526,6634,772093,no_split,narrow,individual,1,0.739964485168457
1,1.0,0.47822811310378643,0.37960892989622447,0.4080125439055645,0.4300000658624275,0.45001247376279463,0.46909718489803187,0.4907614211611458,0.5149319336193905,0.5438881248577819,0.5872558225000198,0.913857698241117,0.8826666666666667,0.45572881076740657,0.0,0.9351794871794872,50,526,6634,772093,no_split,narrow,individual,1,0.739964485168457
0,0.0,0.44627943654798025,0.3796452157654105,0.39878602766085597,0.41391665938727307,0.4270116417847302,0.4393793944524683,0.4529840413052786,0.46810853458236434,0.48707787863438134,0.5170663468275318,1.0953253914421228,0.9862105263157894,0.4730538644995467,0.0,0.9176533333333333,50,526,6844,772093,no_split,narrow,individual,1,0.7355904579162598
1,1.0,0.5005519256389931,0.3997727721051056,0.4261106795982632,0.4466245983554358,0.46720308556366413,0.49029272676923563,0.5139723697024575,0.5391899837892495,0.5722043680269996,0.6170522116575982,0.9690449364479637,0.8472432432432433,0.4730538644995467,0.0,0.9176533333333333,50,526,6844,772093,no_split,narrow,individual,1,0.7355904579162598
0,0.0,0.4324395840727836,0.35005704366051965,0.3728301138058433,0.38923398593257663,0.404275877818537,0.42031080834653856,0.43641697769037313,0.456832262970088,0.48245964480061404,0.528774489830919,1.2119933090775352,0.9837158469945355,0.45238273932463646,0.0,0.9240326975476839,50,526,7624,772093,no_split,narrow,individual,1,0.7391159534454346
1,1.0,0.47221750786316413,0.37298845037746536,0.40129749146552096,0.4221651753546719,0.4422105754013496,0.46241452817247963,0.48302811196868967,0.5075046179521122,0.5385014211346,0.5839381698911252,0.9555852389611567,0.8646739130434783,0.45238273932463646,0.0,0.9240326975476839,50,526,7624,772093,no_split,narrow,individual,1,0.7391159534454346
0,0.0,0.3981036349198183,0.33683366389451014,0.35378452039406033,0.3659463395900533,0.37782161416382226,0.38910456832072127,0.4012698949558237,0.4153449364619326,0.4339563955243673,0.46826787493609384,0.8762453473629325,0.9796791443850268,0.41832564040665676,0.0,0.9084073107049608,50,526,7756,772093,no_split,narrow,individual,1,0.7423138618469238
1,1.0,0.43761908441705877,0.35470933778149566,0.3763627220082931,0.394469348170014,0.4113997437880432,0.42825655987722294,0.44552128163037585,0.46642972708885616,0.4940271308791558,0.5329542737556655,0.8643229495747068,0.8404081632653061,0.41832564040665676,0.0,0.9084073107049608,50,526,7756,772093,no_split,narrow,individual,1,0.7423138618469238
0,0.0,0.42699495830888196,0.3355251346550234,0.36118138689902735,0.3797505276153791,0.3976245479841728,0.41521838009386935,0.4338389652921033,0.4562707459299225,0.48500598874011985,0.5334461581002109,1.1236944717673913,0.9804166666666667,0.4378486443621743,0.0,0.9591978609625669,50,526,7768,772093,no_split,narrow,individual,1,0.7385163307189941
1,1.0,0.44929868679202106,0.3523927866563562,0.38004702565995063,0.40192279866653835,0.422003174415865,0.4415648285767757,0.46245721079268376,0.48476713035374785,0.5102216301119027,0.5524308755178879,0.9331681360306727,0.9368131868131868,0.4378486443621743,0.0,0.9591978609625669,50,526,7768,772093,no_split,narrow,individual,1,0.7385163307189941
0,0.0,0.3923597981642601,0.311532199124624,0.3336514670161822,0.34973174972840515,0.3646521026454262,0.37989776988227847,0.39622768247384244,0.4144190912361324,0.4403581217395153,0.48363150630153495,1.1354527196507438,0.9719786096256684,0.41451838932532187,0.0,0.8996774193548387,50,526,7807,772093,no_split,narrow,individual,1,0.7389736175537109
1,1.0,0.43691653282325993,0.3331971093318084,0.36068295267533046,0.38252041209047855,0.40267765180310694,0.4241092258105983,0.44666248407556264,0.47300414668610546,0.5075547739442797,0.5559573619531406,0.9561727174554201,0.8265945945945946,0.41451838932532187,0.0,0.8996774193548387,50,526,7807,772093,no_split,narrow,individual,1,0.7389736175537109
0,0.0,0.3903698221813099,0.32312191625317144,0.3413777180406425,0.3543258033398035,0.3671039508612057,0.3793088719629002,0.3929625595957987,0.4085745157586679,0.4302656640634882,0.469945445305855,0.9636773103317738,0.980989010989011,0.40519073937488187,0.0,0.9297506925207756,50,526,7813,772093,no_split,narrow,individual,1,0.7444772720336914
1,1.0,0.42026005182868126,0.34120758021287245,0.3621790642382908,0.3788711402258241,0.39513396670427803,0.41132847543943446,0.4291886245628282,0.4494633654549218,0.4727974273783492,0.5106770152264599,0.8349972883314449,0.8776536312849162,0.40519073937488187,0.0,0.9297506925207756,50,526,7813,772093,no_split,narrow,individual,1,0.7444772720336914
0,0.0,0.40464925039227484,0.3459593538393797,0.36291783725062055,0.3761379815713478,0.38766034674611644,0.399199905153072,0.41130535252932693,0.4250396903073883,0.4417026848504201,0.46839073955508775,0.7331136294507521,0.9967021276595744,0.42996255918295795,0.0,0.9469801980198019,50,526,7828,772093,no_split,narrow,individual,1,0.7388925552368164
1,1.0,0.45199451313040434,0.374022110073593,0.3976846480567858,0.41584881213748065,0.43192742685382457,0.4484381017186141,0.46403057842985596,0.4816927883492185,0.5038815237540759,0.5352951285174031,0.762012207011077,0.9037037037037037,0.42996255918295795,0.0,0.9469801980198019,50,526,7828,772093,no_split,narrow,individual,1,0.7388925552368164
0,0.0,0.5308593473257669,0.3927461532564145,0.4237680455891753,0.4486958558154354,0.4742826435796487,0.5007166272881434,0.5310672018590602,0.5669063395366657,0.6219622519766166,0.7124833043574258,1.3345110651925194,0.9885714285714285,0.554796213899695,0.0,0.9623772609819121,50,526,7840,772093,no_split,narrow,individual,1,0.7490432262420654
1,1.0,0.577645041083899,0.4247340913823569,0.46407576644675147,0.4978056312095147,0.5298459221450167,0.559395554078137,0.5915655042472376,0.6298103202154797,0.6780567181386004,0.7503922903930852,1.4704999426585805,0.9373737373737374,0.554796213899695,0.0,0.9623772609819121,50,526,7840,772093,no_split,narrow,individual,1,0.7490432262420654
0,0.0,0.4687879136073811,0.3896045469323536,0.409059645291666,0.4250814316805579,0.4397319677115262,0.45549295366574105,0.4736493609637041,0.4938861908242868,0.5208768847796286,0.5648512548659339,0.9463554717954703,0.9991111111111111,0.49627433330014487,0.0,0.9911466666666666,50,526,7924,772093,no_split,narrow,individual,1,0.7497940063476562
1,1.0,0.5216464130165419,0.4232545154403552,0.4523456581434477,0.47538363980552456,0.4960155247135596,0.5158513955305648,0.535439732166889,0.558331002749077,0.5860733266491256,0.6267436782581535,0.9271509504140683,0.9837948717948718,0.49627433330014487,0.0,0.9911466666666666,50,526,7924,772093,no_split,narrow,individual,1,0.7497940063476562
0,0.0,0.4546286516550018,0.36970076770039545,0.39229419724887754,0.41005838908223835,0.4261867627167058,0.4429759985199312,0.459345109438936,0.47947973878793104,0.5066898362939133,0.5541627108312643,1.0828617472937414,0.9887368421052631,0.47174912008198977,0.0,0.9677974683544304,50,526,7939,772093,no_split,narrow,individual,1,0.7475550174713135
1,1.0,0.4876168713070029,0.3914927008676766,0.41748139222136466,0.4396349173585343,0.45881631688657487,0.47853477908933306,0.4993487051735781,0.522075991344896,0.5499264483309554,0.5940141091725044,0.9651183698469156,0.948390243902439,0.47174912008198977,0.0,0.9677974683544304,50,526,7939,772093,no_split,narrow,individual,1,0.7475550174713135
0,0.0,0.43868873988995977,0.3587841522274591,0.37881358987549163,0.39434559827404503,0.4094173487234807,0.4232700240551998,0.440042516511654,0.4601605477438118,0.48791162993829185,0.5340422612378454,1.037541269881991,0.9631515151515152,0.45455663041096556,0.0,0.9113559322033898,50,526,8026,772093,no_split,narrow,individual,1,0.7461814880371094
1,1.0,0.46840955070708173,0.3700497464909786,0.39403580475544636,0.41561002658929885,0.4345859832815067,0.45412985273258705,0.47578939207122467,0.5011582711640408,0.5332772915105953,0.5845200008717839,1.1031475189636,0.8661375661375661,0.45455663041096556,0.0,0.9113559322033898,50,526,8026,772093,no_split,narrow,individual,1,0.7461814880371094
0,0.0,0.4325327227418806,0.33990142097928483,0.3627546297522618,0.3801423894922862,0.3964961556034298,0.4143578724245335,0.4339171389584691,0.45758316142989874,0.49085054236956477,0.5500033384500108,1.151330014217234,0.9347593582887701,0.44217719576282727,0.0,0.8757808219178083,50,526,8311,772093,no_split,narrow,individual,1,0.7310662269592285
1,1.0,0.45230931067809144,0.3517657093304786,0.3790340991445156,0.3997675892310652,0.41914761626025804,0.438307349516892,0.45950550288333425,0.4862147894509374,0.5163241999826388,0.5681856368508874,1.1384792520071678,0.8138202247191011,0.44217719576282727,0.0,0.8757808219178083,50,526,8311,772093,no_split,narrow,individual,1,0.7310662269592285
0,0.0,0.37753330851111283,0.31753656632591565,0.33679696040940355,0.3498443849218501,0.36197200788321776,0.37372297286920575,0.3857669210125218,0.3987886307568842,0.41531462312773026,0.4400892351294517,0.9395775716250001,0.9874611398963731,0.3981207709457013,0.0,0.8965853658536586,50,526,8446,772093,no_split,narrow,individual,1,0.7325031757354736
1,1.0,0.4206967950927216,0.33860676538976137,0.36172325396743593,0.38068793559792496,0.3974177440100908,0.4136995613875702,0.4313896791848191,0.4518929584033696,0.4756445635877345,0.5117310115420799,0.8051412656990875,0.7969318181818181,0.3981207709457013,0.0,0.8965853658536586,50,526,8446,772093,no_split,narrow,individual,1,0.7325031757354736
0,0.0,0.4726442638740601,0.39430987554529257,0.41650272619320294,0.4316899753784795,0.44648532698256027,0.4619812563019392,0.47774877133175725,0.49619105558522686,0.5207235415159337,0.5614875346471221,1.086764488048041,0.9797989949748743,0.48310958371046797,0.0,0.9445714285714286,50,526,8521,772093,no_split,narrow,individual,1,0.7281010150909424
1,1.0,0.4943063506322161,0.4096530612298806,0.43339920405591714,0.4524922780231181,0.46939025135146295,0.48653259446694863,0.5032838440859765,0.5233762305124008,0.5499856861786178,0.5900112349811345,0.9705619145420107,0.9068817204301075,0.48310958371046797,0.0,0.9445714285714286,50,526,8521,772093,no_split,narrow,individual,1,0.7281010150909424
0,0.0,0.5428741249576596,0.42349820408800376,0.45253830046435645,0.47765744400905785,0.5000512660159412,0.5237673749099362,0.5478950473373202,0.5783042108161409,0.6188145325033493,0.685841883973479,1.3670177639409278,0.9884153005464481,0.5566490144576406,0.0,0.9775358166189112,50,526,8704,772093,no_split,narrow,individual,1,0.7175567150115967
1,1.0,0.5718345854124388,0.4455614417498827,0.48112260660942713,0.5087232824643181,0.5328563355862251,0.5580741255355517,0.5840553722890935,0.614166041905828,0.6536025279376327,0.712632699145937,1.4468816967658071,0.9655421686746988,0.5566490144576406,0.0,0.9775358166189112,50,526,8704,772093,no_split,narrow,individual,1,0.7175567150115967
0,0.0,0.43986589207469035,0.35365686728237083,0.3754042006689739,0.3929749088557587,0.4096147457517849,0.42687911667737666,0.4448258775531043,0.4661569404273661,0.49463470129363823,0.5430956660841265,1.007804776485517,0.9932367149758454,0.45610795700350726,0.0,0.9768556701030928,50,526,8755,772093,no_split,narrow,individual,1,0.7244646549224854
1,1.0,0.4746831362314913,0.3778956363339363,0.40587752699510876,0.4279008650207893,0.4469341292554941,0.46623246721266676,0.4870716245231698,0.509180413016005,0.5384018427927553,0.5799094491929907,0.9472052114819364,0.958121546961326,0.45610795700350726,0.0,0.9768556701030928,50,526,8755,772093,no_split,narrow,individual,1,0.7244646549224854
0,0.0,0.45890906301910506,0.3607726761112791,0.3860847064553405,0.4050584507048266,0.4220747335450548,0.44145547511914174,0.4625619540995276,0.48822123495417147,0.5237097922354828,0.5842343883672567,1.1287424221562488,0.9836538461538461,0.463444825909469,0.0,0.94655,50,526,8785,772093,no_split,narrow,individual,1,0.7250497341156006
1,1.0,0.46835856904069667,0.3845362972824698,0.41010528191652307,0.42855762377220863,0.44567135751625325,0.46313854374331326,0.4800696241242029,0.4992132667645032,0.5227389319580786,0.5584947362806336,0.921618297910502,0.9063541666666667,0.463444825909469,0.0,0.94655,50,526,8785,772093,no_split,narrow,individual,1,0.7250497341156006
0,0.0,0.39224601464622655,0.318442043463092,0.33726421209127333,0.35134571374047857,0.3638385280579464,0.3773800236827954,0.39184328968247634,0.40837275787543387,0.4333298428715535,0.4812739598469934,1.1193834686594268,0.9726595744680852,0.41330804318184955,0.0,0.8777377892030849,50,526,8788,772093,no_split,narrow,individual,1,0.7250006198883057
1,1.0,0.43300785096641237,0.33625584841667094,0.36053478881760515,0.3813230251141275,0.4011986978178289,0.42159129408032764,0.4427250840891479,0.4668825760829133,0.49804998605511164,0.5442828141349983,0.9607404608051244,0.788955223880597,0.41330804318184955,0.0,0.8777377892030849,50,526,8788,772093,no_split,narrow,individual,1,0.7250006198883057
0,0.0,0.42296002786421544,0.3703934257796465,0.385946972458808,0.3972303415499943,0.4070839773772299,0.4168031587462347,0.42735470917588864,0.43901973132444,0.45493683679440977,0.48067010483327477,0.8149975104591297,0.9945555555555555,0.44173293286348103,0.0,0.939672131147541,50,526,161753,772093,no_split,narrow,individual,1,0.7282993793487549
1,1.0,0.4599002602821251,0.3916040723077624,0.41144006088033946,0.42712108813362454,0.4414391364881799,0.4556234501044927,0.4695279217268528,0.4855319297261778,0.5047597081999077,0.5326039705552599,0.8245398090198273,0.8865591397849463,0.44173293286348103,0.0,0.939672131147541,50,526,161753,772093,no_split,narrow,individual,1,0.7282993793487549
0,0.0,0.4406911269289335,0.3676311812711944,0.38766428668576597,0.4027951662118792,0.41778192767308364,0.431901697274671,0.4470993725876765,0.46391508670893866,0.4859025137660893,0.5221688612791074,0.915048646175068,0.9958762886597938,0.46236668286319604,0.0,0.9830319148936171,50,526,337788,772093,no_split,narrow,individual,1,0.7333495616912842
1,1.0,0.4854713963315859,0.39012370220958925,0.41741665405287626,0.4392242449467695,0.4587763197407258,0.4781580642824256,0.49788036297396204,0.5207635174003378,0.5479120007767866,0.5884364032986213,1.1292036882284453,0.9693406593406594,0.46236668286319604,0.0,0.9830319148936171,50,526,337788,772093,no_split,narrow,individual,1,0.7333495616912842
