,congruency,mean_rt,qu10_rt,qu20_rt,qu30_rt,qu40_rt,qu50_rt,qu60_rt,qu70_rt,qu80_rt,qu90_rt,qu100_rt,mean_acc,mean_rt_overall,nonconvergent_trials,accuracy_overall,n_posterior_draws,condition,id,slurm_id,split,spacing,estimation_level,number_parts,time_post_sampling_sec
0,0.0,0.4100500719359725,0.32943449115201556,0.3428559499062851,0.35625900198453625,0.3691206641394748,0.3841123727467129,0.402955904237061,0.4260106955828837,0.4622043301637005,0.5248137550248863,1.1146943457469716,0.988421052631579,0.41809308001171747,0.0,0.9827513227513227,50,1150,1108,772027,no_split,wide,individual,1,0.4866812229156494
1,1.0,0.42622165200316176,0.33903292420849884,0.3559815881985454,0.37082336729721377,0.3865022994096164,0.4029869163272847,0.4231592055419398,0.44843603835610785,0.4821592055419398,0.5414262514592177,1.3764360383561078,0.9770212765957447,0.41809308001171747,0.0,0.9827513227513227,50,1150,1108,772027,no_split,wide,individual,1,0.4866812229156494
0,0.0,0.43493763450029704,0.3388670841016,0.35807649340660375,0.3746254232127391,0.3915110568807753,0.4104971366203035,0.4318469072022957,0.4594934821429011,0.49852456111825233,0.5614675758075052,1.350311745555516,0.9937566137566137,0.4470333763549336,0.0,0.9905263157894737,50,1150,1507,772027,no_split,wide,individual,1,0.4770534038543701
1,1.0,0.45900246122679916,0.3416475623448859,0.36221763945564195,0.38361580123669103,0.4050922934670982,0.42929287849396863,0.457558803664046,0.49262142786037505,0.5390991820518066,0.616050617553562,1.2127006742480426,0.9873298429319372,0.4470333763549336,0.0,0.9905263157894737,50,1150,1507,772027,no_split,wide,individual,1,0.4770534038543701
0,0.0,0.44388167095057474,0.350219404543888,0.367182161016161,0.38336346253905196,0.40008397165221943,0.41917893427260633,0.4410336203437873,0.46803526961398484,0.5042781835913465,0.5717144620746415,1.3781785557179156,0.9962105263157894,0.45346263268562104,0.0,0.9940682414698163,50,1150,1538,772027,no_split,wide,individual,1,0.46108484268188477
1,1.0,0.4629934323173425,0.35675564135951054,0.3768803569330067,0.3960690244528656,0.41627647030579096,0.4373161746266079,0.4616196675615354,0.4934294846461666,0.5343534793712513,0.601010540214658,1.3567926471931842,0.9919371727748691,0.45346263268562104,0.0,0.9940682414698163,50,1150,1538,772027,no_split,wide,individual,1,0.46108484268188477
0,0.0,0.4618400624191715,0.3628227834925442,0.3815029692966881,0.39910401091725467,0.4174684647427643,0.4374717831439956,0.4601871633302362,0.48858314317729523,0.5275959885932714,0.5918666840036518,1.3620935922918855,0.9964130434782609,0.4657403644168214,0.0,0.9962162162162163,50,1150,1582,772027,no_split,wide,individual,1,0.4718666076660156
1,1.0,0.4695987276833136,0.3726955484005623,0.39241670791187844,0.41015967309340323,0.4281040109172547,0.4473966823215282,0.46877513344719335,0.4957131192421707,0.5331596730934032,0.5961295104256736,1.3435128455104328,0.996021505376344,0.4657403644168214,0.0,0.9962162162162163,50,1150,1582,772027,no_split,wide,individual,1,0.4718666076660156
0,0.0,0.4276465802634572,0.34921958540464365,0.36265693178129543,0.3755174609653591,0.38859524258260736,0.40303936885448316,0.420563270801158,0.44310248310447753,0.47707220208599044,0.5351767895258736,1.1801685250715752,0.9895287958115183,0.442971604254271,0.0,0.978798955613577,50,1150,1583,772027,no_split,wide,individual,1,0.4754335880279541
1,1.0,0.45821681041179924,0.359247898308946,0.3780619003212916,0.3954466801016911,0.414525100082741,0.43528001166760116,0.45809846578649516,0.48619309169391844,0.5229264368750876,0.5865984886308764,1.3785487251689588,0.968125,0.442971604254271,0.0,0.978798955613577,50,1150,1583,772027,no_split,wide,individual,1,0.4754335880279541
0,0.0,0.5583852555879935,0.3715951923413737,0.4105350312636425,0.44415417534528184,0.47848033718428135,0.5187781793079784,0.561408746451667,0.6139269024797811,0.6806673995731919,0.798273036543319,1.4549547097767541,0.995593220338983,0.5578090902561501,0.0,0.9962637362637362,50,1150,1597,772027,no_split,wide,individual,1,0.4760260581970215
1,1.0,0.5572637359046192,0.3860705854624807,0.4187633923944932,0.44753988462575345,0.4791855655801014,0.5119547097767541,0.5527971418088394,0.6003084713164843,0.6703791680755544,0.787100167212695,1.44415472560464,0.9968983957219252,0.5578090902561501,0.0,0.9962637362637362,50,1150,1597,772027,no_split,wide,individual,1,0.4760260581970215
0,0.0,0.4000177511104637,0.3210571178128385,0.33815587113458556,0.3532272675108909,0.3679795950902743,0.38417614441651143,0.40280684046374876,0.4245781761818189,0.45396788032303587,0.49794215333710556,0.9041248112432229,1.0,0.40671255001877865,379.0,0.9998923052070432,50,1150,1601,772027,no_split,wide,individual,1,0.49373841285705566
1,1.0,0.4134427711435396,0.32796788032303587,0.3479096534572154,0.36286944897314166,0.37863651522333625,0.3949795950902743,0.4141859651537318,0.4367006866016599,0.46977310468334643,0.5243846752795376,1.082002837317147,0.9997840406003672,0.40671255001877865,379.0,0.9998923052070432,50,1150,1601,772027,no_split,wide,individual,1,0.49373841285705566
0,0.0,0.4657674533400814,0.3358598402251664,0.3581936449419823,0.3808182356822501,0.40297610458614064,0.4291318586678663,0.45975749821502654,0.49866812497415797,0.5528613350653275,0.6445386430612959,1.3696885041980635,0.986421052631579,0.4771211375506077,0.0,0.983578947368421,50,1150,1614,772027,no_split,wide,individual,1,0.45935630798339844
1,1.0,0.488474821761134,0.3456615602393868,0.3727818470839286,0.39734425951259145,0.42403935596095327,0.4507415954100401,0.48253037245143343,0.5233603446769101,0.5821784413806118,0.6799762877631034,1.4424933064816887,0.9807368421052631,0.4771211375506077,0.0,0.983578947368421,50,1150,1614,772027,no_split,wide,individual,1,0.45935630798339844
0,0.0,0.42571391607253534,0.3676132987987959,0.38230314091223727,0.39361329879879586,0.40493275367294185,0.41637962390166183,0.4298905550820869,0.4446132987987959,0.46376829195473374,0.49594118816610144,0.7512568072656312,1.0,0.4320567758597988,0.0,1.0,50,1150,161753,772027,no_split,wide,individual,1,0.46121668815612793
1,1.0,0.4383664269570765,0.37288737420813245,0.3887381377655585,0.40167615736097806,0.4143191781871099,0.4273569245703961,0.4414693001645616,0.4591464460262691,0.48173679596555574,0.5180334255527683,0.838387816818069,1.0,0.4320567758597988,0.0,1.0,50,1150,161753,772027,no_split,wide,individual,1,0.46121668815612793
0,0.0,0.4642799845924726,0.35563343608853865,0.37676107061616615,0.3951266655897085,0.41463139078015365,0.4366288724066105,0.4616159452463969,0.4925214486551347,0.5367674437378673,0.6098418081744268,1.3877083846103668,0.9970212765957447,0.46954767363979766,0.0,0.9968337730870712,50,1150,1638,772027,no_split,wide,individual,1,0.459911584854126
1,1.0,0.47473262411569866,0.3670384230196753,0.38840377317397096,0.40770838461036685,0.42683664077309114,0.4477347276132665,0.4726159452463969,0.503596872745096,0.5458016771343562,0.6197242642729881,1.3894964246375907,0.9966492146596858,0.46954767363979766,0.0,0.9968337730870712,50,1150,1638,772027,no_split,wide,individual,1,0.459911584854126
0,0.0,0.3892479500854875,0.3175804098377871,0.3313115151946269,0.344195508183089,0.3564537482388424,0.37000148509169506,0.38559213295111944,0.4052031846032097,0.43446096971665377,0.48496962306274344,1.0913425873699851,0.993578947368421,0.4005504269636989,0.0,0.9877572559366755,50,1150,1657,772027,no_split,wide,individual,1,0.4600868225097656
1,1.0,0.41191270530687435,0.3217917327016616,0.33811650749257804,0.35415665771424476,0.36968162232418805,0.38821658140269,0.4110994621819322,0.43677005120753903,0.47230237854222223,0.5355962119011902,1.1671018256907286,0.981904761904762,0.4005504269636989,0.0,0.9877572559366755,50,1150,1657,772027,no_split,wide,individual,1,0.4600868225097656
0,0.0,0.45936400810208977,0.3708424626823363,0.38718045800060186,0.4027451883639273,0.41820140725724797,0.4354857561385638,0.45563943328501294,0.4809677673521701,0.5191451864924232,0.5780144010616748,1.2997521279727724,0.9964893617021277,0.4689895884240531,0.0,0.9947619047619047,50,1150,1663,772027,no_split,wide,individual,1,0.4596889019012451
1,1.0,0.47851384684789044,0.3814681300471288,0.4008009513487218,0.41870577790141716,0.43671276646613394,0.4557160985577704,0.4777765374702173,0.5049677673521702,0.5418259181067475,0.6045454708975917,1.2007521243218893,0.9930526315789474,0.4689895884240531,0.0,0.9947619047619047,50,1150,1663,772027,no_split,wide,individual,1,0.4596889019012451
0,0.0,0.5058275725110656,0.3721377503731969,0.3977800338489101,0.42289580542483995,0.4467120269405417,0.47253134363701,0.5049947018079499,0.5431823759668952,0.592538774623189,0.6792631465546806,1.4017429590083479,0.997741935483871,0.5170145902976838,0.0,0.9971045576407507,50,1150,1761,772027,no_split,wide,individual,1,0.46448588371276855
1,1.0,0.5281417844597747,0.38464844736101206,0.41376643246723643,0.43963501531093213,0.46647825067092,0.49474286727341305,0.5263477430358523,0.5694648594190922,0.6234649744594399,0.7146527882164863,1.474705700697916,0.9964705882352941,0.5170145902976838,0.0,0.9971045576407507,50,1150,1761,772027,no_split,wide,individual,1,0.46448588371276855
0,0.0,0.442524984879257,0.32149010675812134,0.34231948082882185,0.3626030987003867,0.38370363798841123,0.4069493449022509,0.43647124543611315,0.47163631842428966,0.5206032612345467,0.6088705812477979,1.4039400850221866,0.9850261780104712,0.45367236707820985,0.0,0.981151832460733,50,1150,1768,772027,no_split,wide,individual,1,0.4703667163848877
1,1.0,0.4648197492771628,0.32947124543611317,0.35438364059394223,0.3783614393236687,0.40319824371999363,0.42916613768349554,0.4623245201162533,0.5011334740807547,0.5564984464623262,0.6441286329627097,1.451286889466121,0.9772774869109948,0.45367236707820985,0.0,0.981151832460733,50,1150,1768,772027,no_split,wide,individual,1,0.4703667163848877
0,0.0,0.3673054192823376,0.28878943074603086,0.3035732413777201,0.31596826450519655,0.32973264939343955,0.3455810216545766,0.3638195562383635,0.386974913445586,0.4191902939561739,0.4716752285996138,1.0668101334378064,0.9839361702127659,0.37397536609084825,0.0,0.9798404255319149,50,1150,1813,772027,no_split,wide,individual,1,0.46966981887817383
1,1.0,0.3806453128993589,0.2902034640830182,0.30614692672099436,0.3203160026120961,0.3360207878868225,0.3543213463055067,0.3756238138790514,0.40358105174044423,0.44183369596987265,0.5070311202960701,1.126263150913726,0.9757446808510638,0.37397536609084825,0.0,0.9798404255319149,50,1150,1813,772027,no_split,wide,individual,1,0.46966981887817383
0,0.0,0.3863604958784152,0.30378512463853047,0.3209604254634619,0.33496536892780615,0.3497492031365708,0.3657805062781704,0.3844736209809628,0.4073014788563551,0.4394627981546679,0.4969125822126751,1.225184714580066,0.9969298245614036,0.39066877280432577,762.0,0.9963363954505686,50,1150,1821,772027,no_split,wide,individual,1,0.4762866497039795
1,1.0,0.3949544933065405,0.3082744380506545,0.3247862792286205,0.3400804793932028,0.35573224669364967,0.372317075483417,0.39256832855707163,0.41778282502368025,0.4521274443743605,0.5081697151891298,1.0962349370087536,0.9957460732984293,0.39066877280432577,762.0,0.9963363954505686,50,1150,1821,772027,no_split,wide,individual,1,0.4762866497039795
0,0.0,0.4346177327794547,0.3391404517938432,0.35953195108545344,0.37798225952566233,0.39513095157068195,0.4141013982311446,0.43552645257567346,0.4627759111705801,0.4999533877340078,0.5555903182982367,1.156848304589227,0.9994182664339732,0.43877906173122033,1880.0,0.999290780141844,50,1150,275,772027,no_split,wide,individual,1,0.46904563903808594
1,1.0,0.4430753527030432,0.3407715522780049,0.3615113868565845,0.38020275787550856,0.3989447093632031,0.41847979525659734,0.44077155227800485,0.4704740610013235,0.5092912662004981,0.5801723385860016,1.1100659897749647,0.9991591591591592,0.43877906173122033,1880.0,0.999290780141844,50,1150,275,772027,no_split,wide,individual,1,0.46904563903808594
0,0.0,0.3729380857153523,0.2982835183910726,0.3128738947449526,0.3254234196289351,0.3392246976759417,0.3534432496165659,0.3702183872663209,0.39129517324467195,0.42042738562646126,0.4717350782030393,1.0822906246561879,0.9958510638297873,0.38107805665050665,0.0,0.9928912466843501,50,1150,3286,772027,no_split,wide,individual,1,0.45992255210876465
1,1.0,0.3891749589563745,0.3029437753402684,0.31910664589430865,0.3337819953609603,0.3490161850758611,0.36628963546917426,0.38632801312165577,0.4122013735018959,0.44547626301858195,0.5090810849015346,1.3233613528774373,0.9899470899470899,0.38107805665050665,0.0,0.9928912466843501,50,1150,3286,772027,no_split,wide,individual,1,0.45992255210876465
0,0.0,0.44405146366517256,0.3446319148406092,0.36494471551194224,0.3824256063413244,0.4007738653518912,0.41898482457197483,0.44142392673731706,0.46855067546514567,0.5061885575850783,0.5704580311649011,1.3935506754651457,0.9984126984126984,0.456390937077522,0.0,0.9981002638522427,50,1150,3292,772027,no_split,wide,individual,1,0.45914316177368164
1,1.0,0.46866546589296426,0.354421669820901,0.3781562748752911,0.3992902775330893,0.41962296381293984,0.44397126751546506,0.4713877711735019,0.5031631275980755,0.5446408526418285,0.6111085322294033,1.2864710316977899,0.9977894736842106,0.456390937077522,0.0,0.9981002638522427,50,1150,3292,772027,no_split,wide,individual,1,0.45914316177368164
0,0.0,0.4458842174445669,0.3600650167528561,0.3781267049080692,0.39345485827109905,0.40951338932473225,0.4274835495628207,0.44691385379756043,0.4706001849211413,0.5035271370662767,0.5543736258416974,1.1944983200600463,0.9994736842105263,0.44931831801094346,0.0,0.9993700787401575,50,1150,337788,772027,no_split,wide,individual,1,0.46050047874450684
1,1.0,0.45273443899320287,0.36148194554240964,0.3810719041888035,0.39729011440117146,0.4140719041888035,0.43243374608209995,0.45260248080021415,0.4784487438887122,0.5119872254488663,0.5700013816509844,1.0654435542959138,0.9992670157068063,0.44931831801094346,0.0,0.9993700787401575,50,1150,337788,772027,no_split,wide,individual,1,0.46050047874450684
0,0.0,0.3978563619333083,0.3163279950845548,0.331362729525581,0.3445109836167985,0.35750541542430275,0.3736490110004838,0.391850860088895,0.41513344279263015,0.449334884207553,0.5099300469849204,1.202567718763582,0.9952941176470588,0.41253582314887954,0.0,0.9905376344086021,50,1150,3487,772027,no_split,wide,individual,1,0.4546234607696533
1,1.0,0.427373981242457,0.3236903197934008,0.343562997101755,0.3621128790876314,0.38263602678027486,0.40368042445070285,0.4287685502814357,0.45829122562638425,0.497535048652049,0.5622393945678226,1.2541205576269538,0.9857297297297297,0.41253582314887954,0.0,0.9905376344086021,50,1150,3487,772027,no_split,wide,individual,1,0.4546234607696533
0,0.0,0.40462899060772556,0.33895350050055395,0.35086045045840136,0.36217945451401273,0.373953500500554,0.386898172189697,0.4016022274964412,0.4210819823051523,0.4475762014416123,0.49265702165090103,0.8793357254061762,0.9969633507853403,0.4127325369663504,0.0,0.9947619047619047,50,1150,3580,772027,no_split,wide,individual,1,0.4564859867095947
1,1.0,0.4210094212149994,0.3452408831810496,0.359842562234012,0.3732436164874948,0.3876323527620762,0.4032183260349014,0.42055463150844985,0.44195093210475506,0.47137180067591145,0.5214021525776652,0.9380222698248389,0.9925133689839573,0.4127325369663504,0.0,0.9947619047619047,50,1150,3580,772027,no_split,wide,individual,1,0.4564859867095947
0,0.0,0.46300925553144073,0.34434092373652003,0.3646154010908129,0.3847834747366173,0.4048828723731301,0.42752755966939177,0.4550901842808927,0.48824450991852536,0.5370872593316854,0.6272580357047426,1.4625275596693919,0.9934065934065934,0.47952563219345284,0.0,0.9902209944751381,50,1150,3625,772027,no_split,wide,individual,1,0.45439743995666504
1,1.0,0.4962255241517094,0.3585538595077487,0.3852611542682219,0.41131371940497424,0.43798483383842574,0.4659049603758543,0.4982263280523312,0.537773789558576,0.5876051146683535,0.6756542606767105,1.4186161972392144,0.987,0.47952563219345284,0.0,0.9902209944751381,50,1150,3625,772027,no_split,wide,individual,1,0.45439743995666504
0,0.0,0.5425388177247762,0.4226430145136695,0.4480389961459568,0.46946847276772047,0.4915363039420447,0.5150369742412024,0.5444766053228205,0.5766576845762325,0.6205184786091122,0.6965068258121205,1.4026430145136695,0.9997905759162303,0.5509835344388518,0.0,0.9995275590551181,50,1150,3754,772027,no_split,wide,individual,1,0.45737171173095703
1,1.0,0.5594726970303701,0.4332182008264697,0.46053231972828595,0.48435220532681056,0.5064553862565758,0.5333511179664645,0.5608423940660044,0.5976562103063274,0.6436575365246396,0.7214752784937134,1.3410791091280487,0.9992631578947369,0.5509835344388518,0.0,0.9995275590551181,50,1150,3754,772027,no_split,wide,individual,1,0.45737171173095703
0,0.0,0.4070390134039359,0.3279120867573425,0.342869927383828,0.35691102070640607,0.37161832377986853,0.3866641135629445,0.40422357335507475,0.42852379022041054,0.458663133333349,0.512416355320987,1.0992845239705418,0.9904977864161537,0.41292495493136144,379.0,0.9874535566205374,50,1150,3910,772027,no_split,wide,individual,1,0.45694661140441895
1,1.0,0.418779917819169,0.331007699850577,0.34642300471306536,0.3619117669420616,0.37698878929591584,0.39417346396809205,0.41502969942540546,0.4419189896722136,0.47896725737954293,0.5364777199302186,1.1389549368959602,0.9844253490870032,0.41292495493136144,379.0,0.9874535566205374,50,1150,3910,772027,no_split,wide,individual,1,0.45694661140441895
0,0.0,0.4020272601804244,0.33218193291712983,0.3444007663955899,0.35609547772701444,0.36786022369916466,0.3813552773149673,0.39785426534726437,0.41984321021578647,0.449489069510083,0.499876937239147,1.0510467315843417,0.9916842105263158,0.40663650528527095,0.0,0.988759894459103,50,1150,4222,772027,no_split,wide,individual,1,0.48623061180114746
1,1.0,0.4112701379303548,0.3360061213761921,0.349842402989059,0.36256995203833614,0.3760500621574576,0.3910292019578635,0.409569947394915,0.43178353414502946,0.4617601217026813,0.5119071982049114,0.9615716134125026,0.9858201058201058,0.40663650528527095,0.0,0.988759894459103,50,1150,4222,772027,no_split,wide,individual,1,0.48623061180114746
0,0.0,0.4414969744208735,0.3262524694794914,0.34457115673732447,0.36154461588174946,0.3817955976408934,0.40292987081255077,0.4297572041316866,0.46456879263844836,0.5172455078710704,0.6052906960565,1.3867091353774164,0.9776719576719577,0.4570879797118787,0.0,0.9672486772486772,50,1150,4264,772027,no_split,wide,individual,1,0.48923563957214355
1,1.0,0.4726789850028841,0.3432256659849237,0.3670006900394115,0.39063777934767385,0.41430776303559114,0.44056337741563595,0.4709274458261824,0.5096683477131578,0.559974343039226,0.6456534265454771,1.3182865635606322,0.9568253968253968,0.4570879797118787,0.0,0.9672486772486772,50,1150,4264,772027,no_split,wide,individual,1,0.48923563957214355
0,0.0,0.4323335684483265,0.36869018179261986,0.38090656019734137,0.3922244799740039,0.4036277082787293,0.41577471292615414,0.4304904062034792,0.44824952970090515,0.47330119616272825,0.5158373792234034,1.2877281577534065,0.9969148936170212,0.43715446206534775,0.0,0.9962666666666666,50,1150,5281,772027,no_split,wide,individual,1,0.4837324619293213
1,1.0,0.4420011358621392,0.37207482695422245,0.386271634553218,0.39806294806736325,0.4110538178936916,0.4245328576079911,0.4402912232957958,0.4602480769023194,0.4878438525825598,0.5342603452973711,0.9729743668629011,0.9956149732620321,0.43715446206534775,0.0,0.9962666666666666,50,1150,5281,772027,no_split,wide,individual,1,0.4837324619293213
0,0.0,0.4563797806884624,0.36553666581734456,0.38679702636603325,0.4047363237478039,0.4217443948009612,0.4393584570521045,0.45956605516236865,0.4839632249902143,0.515315450799812,0.569875031441451,1.1310069166671168,1.0,0.46435059042391214,0.0,0.9999466666666667,50,1150,5332,772027,no_split,wide,individual,1,0.4913825988769531
1,1.0,0.4724499616067078,0.37184422697980424,0.39481855957297013,0.41387592643637255,0.4332955578199069,0.4529270336901525,0.4752581894598048,0.5031543327656465,0.5390359876529478,0.5997888932604969,1.0681811590391972,0.9998924731182796,0.46435059042391214,0.0,0.9999466666666667,50,1150,5332,772027,no_split,wide,individual,1,0.4913825988769531
0,0.0,0.44129655021308645,0.3432879622923936,0.36202182989619774,0.3788944294813626,0.3967789270981824,0.415808481130526,0.4365458296136661,0.46355072525221436,0.5034277702313885,0.5715389701146508,1.2926791206589585,0.9962105263157894,0.45350765894798445,0.0,0.9934564643799473,50,1150,5575,772027,no_split,wide,individual,1,0.4940652847290039
1,1.0,0.4657833767238077,0.35614847356588664,0.3774819466572128,0.39606513000086696,0.4170001294972601,0.4385566262350865,0.46403669819561527,0.4969114227082709,0.539334850115015,0.6138385817382404,1.2137837779029692,0.9906878306878307,0.45350765894798445,0.0,0.9934564643799473,50,1150,5575,772027,no_split,wide,individual,1,0.4940652847290039
0,0.0,0.43950727097360015,0.3431942826163067,0.36075100718824327,0.37718509093906677,0.3935721487533248,0.41242641256783547,0.4363710588391474,0.4644296866744483,0.50164678375468,0.5697106662611506,1.250318654811013,0.9888479982156797,0.44434285650028577,371.0,0.9863578854722482,50,1150,5731,772027,no_split,wide,individual,1,0.4895915985107422
1,1.0,0.44904983602892123,0.3524300313853963,0.3706161563322639,0.3872748197475887,0.4042340863261991,0.42389900173100525,0.4465067043152595,0.47501670445458855,0.512950890913387,0.5796451484928571,1.396925298168086,0.9839339991315675,0.44434285650028577,371.0,0.9863578854722482,50,1150,5731,772027,no_split,wide,individual,1,0.4895915985107422
0,0.0,0.41928212273678533,0.3348675070782511,0.3513702019501755,0.3668393980769023,0.38151877048136995,0.3977013970093493,0.4167055151393901,0.4414185332899424,0.47341366980723304,0.5297117583709763,1.1460542741331872,0.9980851063829788,0.43456701494289174,0.0,0.996710875331565,50,1150,5761,772027,no_split,wide,individual,1,0.45845699310302734
1,1.0,0.4497710347034633,0.3475864552166979,0.36880379752627124,0.38763305005295057,0.4075953262066772,0.4272390033088875,0.45190232522226986,0.48248931924872074,0.5187096369245793,0.576732071715859,1.0807765513512921,0.9953439153439153,0.43456701494289174,0.0,0.996710875331565,50,1150,5761,772027,no_split,wide,individual,1,0.45845699310302734
0,0.0,0.42038081477366107,0.31219852019923655,0.33138182332938604,0.34891622610925854,0.3673639788086825,0.38841093193040094,0.41401608145683,0.4468972515757566,0.4912022287072295,0.5672317396803161,1.3109766337866713,0.9590625,0.42303321060699434,0.0,0.9582291666666667,50,1150,5803,772027,no_split,wide,individual,1,0.45937108993530273
1,1.0,0.4256856064403277,0.31500783037411395,0.33356206516406406,0.35091622610925854,0.370701488034499,0.3935134493292377,0.4189710814390406,0.45159763097183986,0.4989703685224043,0.5783046245798772,1.3462445659214792,0.9573958333333333,0.42303321060699434,0.0,0.9582291666666667,50,1150,5803,772027,no_split,wide,individual,1,0.45937108993530273
0,0.0,0.5003772957906736,0.35821397696071683,0.3843783189450725,0.4090668360203208,0.4359176985804897,0.46342527965045666,0.49787875959288325,0.5384227052281417,0.5937416726152475,0.6923721231911731,1.4654194044411615,0.9944791666666667,0.5066092356903247,0.0,0.993455497382199,50,1150,5815,772027,no_split,wide,individual,1,0.46442413330078125
1,1.0,0.5129067749573403,0.37660648427624,0.40344784191974287,0.4276966359748123,0.45199800198189977,0.4775883997648144,0.5107610605295254,0.5494019113567001,0.602769440339176,0.6965371597146327,1.4619176985804898,0.992421052631579,0.5066092356903247,0.0,0.993455497382199,50,1150,5815,772027,no_split,wide,individual,1,0.46442413330078125
0,0.0,0.409300293108567,0.3429678680628025,0.3581876875936273,0.3707139223544661,0.3827891172170266,0.3959085828723258,0.41024241972544206,0.4281399509199063,0.4518433283942373,0.49283979789164994,0.9298784791146482,0.9998947368421053,0.4205797060854537,0.0,0.9997354497354497,50,1150,6055,772027,no_split,wide,individual,1,0.4591643810272217
1,1.0,0.43197911281741364,0.35128258177429644,0.36920057146703333,0.38536876738532927,0.40136550463552995,0.41743997458277116,0.4359024254977446,0.4579251364023258,0.4860994428101554,0.5323306865237628,0.9837509335421991,0.9995744680851064,0.4205797060854537,0.0,0.9997354497354497,50,1150,6055,772027,no_split,wide,individual,1,0.4591643810272217
0,0.0,0.45490091424201495,0.33291630784671283,0.3542190153447702,0.3745865426724468,0.39680271175032983,0.4215788022369682,0.45054986345660647,0.4866593176488679,0.5379192788124003,0.6186780089413575,1.3700229989412747,0.990054054054054,0.45763434341381404,0.0,0.9876675603217158,50,1150,6109,772027,no_split,wide,individual,1,0.4573378562927246
1,1.0,0.4603241540349994,0.3503912723144264,0.3700229989412747,0.3885898512816507,0.40891450727605066,0.4309327381142424,0.4558366064445547,0.48858985128165067,0.5316848038238864,0.608512720688295,1.2711189215024938,0.9853191489361702,0.45763434341381404,0.0,0.9876675603217158,50,1150,6109,772027,no_split,wide,individual,1,0.4573378562927246
0,0.0,0.38211057261295067,0.32203992682830324,0.3339713519630537,0.3438283566150324,0.3546541270074758,0.3670406199545784,0.3810329156713714,0.39743123885565157,0.41959080920007785,0.4599793858153457,0.9287392189532812,0.9972774869109947,0.3970700444049482,0.0,0.9927937336814622,50,1150,6214,772027,no_split,wide,individual,1,0.47482800483703613
1,1.0,0.4119516022813625,0.3273185911319042,0.3434359680977319,0.3590712301940411,0.37373484531622436,0.3912975948645332,0.41054067285424,0.43659964297306597,0.4697991257033026,0.5256099599721589,0.9255013594416893,0.9883333333333333,0.3970700444049482,0.0,0.9927937336814622,50,1150,6214,772027,no_split,wide,individual,1,0.47482800483703613
0,0.0,0.4640071627841751,0.32813641121967857,0.3546033477690854,0.37887210580788505,0.4031719104216676,0.4299649085932139,0.4616316563084541,0.5005135670508806,0.5563269135011986,0.6461240981957905,1.4034041412735618,0.990899470899471,0.4623576389746512,0.0,0.9913227513227513,50,1150,6253,772027,no_split,wide,individual,1,0.4656076431274414
1,1.0,0.46070811516512744,0.34013450420099856,0.3622492411847589,0.3836465001231526,0.4044242154292273,0.4273930959689224,0.4536641890650588,0.4917087993055107,0.5411228347064976,0.6219758172951991,1.3865778598365412,0.9917460317460317,0.4623576389746512,0.0,0.9913227513227513,50,1150,6253,772027,no_split,wide,individual,1,0.4656076431274414
0,0.0,0.45009196485077413,0.35916637966518256,0.3765425290185725,0.39260359529842476,0.40972487096147925,0.4281294212582587,0.4496432486503073,0.47612369525906545,0.5112483614445391,0.5695414810598977,1.157914950751995,0.997578947368421,0.4550831208115421,0.0,0.9969553805774278,50,1150,6262,772027,no_split,wide,individual,1,0.48020076751708984
1,1.0,0.4600481450657094,0.36224111833223993,0.38148670964030923,0.39899235963220303,0.41714035266960525,0.43546661900469247,0.45759098665021464,0.4855427130912769,0.5229462422761257,0.5861608007509598,1.1781759303215475,0.9963350785340314,0.4550831208115421,0.0,0.9969553805774278,50,1150,6262,772027,no_split,wide,individual,1,0.48020076751708984
0,0.0,0.48234548266467925,0.3787870352749469,0.40187692444915496,0.42278907793262366,0.44295737525647016,0.4631611789660723,0.4861265018201867,0.5141202226808586,0.5528984981758567,0.6118939598905152,1.1647626140505232,1.0,0.4947859037173108,0.0,1.0,50,1150,6361,772027,no_split,wide,individual,1,0.45113039016723633
1,1.0,0.5072263247699423,0.4118789651336571,0.4342331300141939,0.45379432667492675,0.471835247845372,0.4913668572625457,0.5127941907650788,0.5372316679972092,0.5705854965442904,0.6245877956989621,1.0391238225655766,1.0,0.4947859037173108,0.0,1.0,50,1150,6361,772027,no_split,wide,individual,1,0.45113039016723633
0,0.0,0.41020485047587346,0.3372593478849863,0.3512304696049309,0.36460557217728773,0.3778987966487036,0.3918635311460412,0.40891554038747574,0.42946430501637906,0.4594353481157282,0.5063336395873692,0.9517645211133149,0.995578947368421,0.413361622035379,0.0,0.9956200527704485,50,1150,6427,772027,no_split,wide,individual,1,0.4534180164337158
1,1.0,0.4165350960899085,0.3409315420067307,0.35561802660432695,0.3695117920677971,0.382931035989348,0.3976645648085112,0.41421194135093353,0.43637208452824816,0.4669502723594848,0.5159474273265142,1.0409155403874757,0.9956613756613757,0.413361622035379,0.0,0.9956200527704485,50,1150,6427,772027,no_split,wide,individual,1,0.4534180164337158
0,0.0,0.4560577062124496,0.36945989901161125,0.3856451989820747,0.4008487635869065,0.4160635613991385,0.4331678978276936,0.45377123886951737,0.47852435278724004,0.5134641544409726,0.5724427862273422,1.3005705330041872,0.9935106382978723,0.4633708069216695,0.0,0.9927466666666667,50,1150,6583,772027,no_split,wide,individual,1,0.4463074207305908
1,1.0,0.470723015121313,0.37344028469173046,0.3911833156062093,0.4082616092297832,0.42572703715247767,0.4455209451869508,0.46815248004917787,0.49620699273457053,0.5361339399527203,0.6001812605134333,1.2184328398243156,0.9919786096256684,0.4633708069216695,0.0,0.9927466666666667,50,1150,6583,772027,no_split,wide,individual,1,0.4463074207305908
0,0.0,0.43519061882002313,0.34329429581131654,0.3607365083587565,0.37710510877003217,0.3934095122297417,0.41080637545937215,0.43162263145300794,0.4569524952326769,0.49330808931802844,0.5538936538238067,1.3906897432841194,0.9924867724867725,0.44805449624978294,0.0,0.9892513368983957,50,1150,6634,772027,no_split,wide,individual,1,0.4450571537017822
1,1.0,0.46119651156991587,0.345684988337231,0.3663867504190231,0.3860402681362689,0.40694363151221175,0.4303068989203637,0.45728184930415056,0.4919173737227414,0.5423219169019639,0.6230607286085693,1.4108108168840814,0.985945945945946,0.44805449624978294,0.0,0.9892513368983957,50,1150,6634,772027,no_split,wide,individual,1,0.4450571537017822
0,0.0,0.45066756823941356,0.36335198150509795,0.3803457234220381,0.39551623862072127,0.41015140986764176,0.42735462189981965,0.44771704510029325,0.471472422168352,0.5081316051042493,0.5683636160954026,1.227420800303153,0.9979166666666667,0.46057176645525344,0.0,0.9960313315926893,50,1150,6844,772027,no_split,wide,individual,1,0.4435920715332031
1,1.0,0.4705278191120139,0.3748623574371518,0.3945311056499662,0.4131930409945348,0.42993294001258114,0.44947242216835204,0.47151937996744936,0.4969599592534158,0.5332404440377456,0.5948317504240574,1.2143447292952838,0.9941361256544503,0.46057176645525344,0.0,0.9960313315926893,50,1150,6844,772027,no_split,wide,individual,1,0.4435920715332031
0,0.0,0.4305358306540591,0.3251491828962268,0.34686949513227827,0.36521528945519566,0.3830384841373194,0.40192067937395226,0.4243850991612731,0.4540153547059153,0.49416902342133434,0.5638947161517626,1.3352152894551956,0.9992631578947369,0.459554658430306,0.0,0.9976963350785341,50,1150,7624,772027,no_split,wide,individual,1,0.44989585876464844
1,1.0,0.4882712067505503,0.34615360951024515,0.37846121490188367,0.4058316622967885,0.43284172323274345,0.4631458518017999,0.4958844075327214,0.5349338024773584,0.5830762060172014,0.6621490480859095,1.3922463079641985,0.9961458333333333,0.459554658430306,0.0,0.9976963350785341,50,1150,7624,772027,no_split,wide,individual,1,0.44989585876464844
0,0.0,0.4055087882401194,0.31998508381647445,0.33551723373412545,0.35050841348467665,0.36526018195171644,0.3816968991529479,0.4010518970651874,0.42510456160799415,0.46044417911237245,0.51751321210044,1.178594343317884,0.9946875,0.4150549853387232,0.0,0.9915706806282722,50,1150,7756,772027,no_split,wide,individual,1,0.44634151458740234
1,1.0,0.42470166872257553,0.32606761424202596,0.3442601819517164,0.36306374916355044,0.3808522478035047,0.40018582202189396,0.42357486295462055,0.4525133842186149,0.49026631539514104,0.5547625594612513,1.2312581905363844,0.988421052631579,0.4150549853387232,0.0,0.9915706806282722,50,1150,7756,772027,no_split,wide,individual,1,0.44634151458740234
0,0.0,0.41376482452834157,0.3138607310852646,0.3317908067005153,0.3476985428423883,0.364776763000959,0.38477398178382327,0.4073952747682218,0.43693292367703396,0.47985456835747714,0.5489232694245888,1.3876120372046497,0.990531914893617,0.42694556863877453,0.0,0.985201072386059,50,1150,7768,772027,no_split,wide,individual,1,0.44672322273254395
1,1.0,0.44034005454559283,0.32360743642372963,0.34578430172060126,0.36659389218694577,0.3877555306221528,0.41131196842104634,0.4387936061271005,0.47333202822786385,0.5185234070010959,0.5933365545382845,1.3245751152259253,0.9797837837837838,0.42694556863877453,0.0,0.985201072386059,50,1150,7768,772027,no_split,wide,individual,1,0.44672322273254395
0,0.0,0.4018925403688002,0.2941133322775338,0.31201945968509964,0.3289405343293897,0.3467630801637311,0.3685513079773809,0.39490469952416324,0.42791029698318983,0.4749492275873321,0.5538293004572109,1.2989115700887495,0.9802094240837697,0.40853254036880016,0.0,0.9759685863874346,50,1150,7807,772027,no_split,wide,individual,1,0.44490838050842285
1,1.0,0.4151725403688002,0.3062083460171475,0.3267520473977707,0.34476142873781473,0.36395201866611715,0.3863824515233587,0.4115854167189618,0.4434789085016305,0.48625372804013434,0.5595346845668066,1.42732241948842,0.9717277486910995,0.40853254036880016,0.0,0.9759685863874346,50,1150,7807,772027,no_split,wide,individual,1,0.44490838050842285
0,0.0,0.39088604481732875,0.3168580124698047,0.32932698597894333,0.3415467018330171,0.354037919689518,0.36764167087640687,0.3850591298063864,0.4065473882645851,0.4382136834055128,0.4956460214364547,0.9818350218672487,0.9872916666666667,0.39954574133963844,0.0,0.9821522309711286,50,1150,7813,772027,no_split,wide,individual,1,0.44347548484802246
1,1.0,0.4083428933623023,0.3235944900920736,0.33964176617733,0.3540300232583638,0.3690115982523374,0.38548012645582463,0.4051001889396718,0.43164176617733,0.46577096669245316,0.5207853705895176,1.1210455653632163,0.976931216931217,0.39954574133963844,0.0,0.9821522309711286,50,1150,7813,772027,no_split,wide,individual,1,0.44347548484802246
0,0.0,0.403964076121601,0.33547154598063755,0.35121328724847295,0.3644650746704115,0.3768788712795207,0.391213287248473,0.40627260215891764,0.42477436700775273,0.4501541325084571,0.48962391109287007,0.9128260567624775,1.0,0.4090563936768954,382.0,1.0,50,1150,7828,772027,no_split,wide,individual,1,0.44654035568237305
1,1.0,0.41414871123218977,0.3378260567624775,0.35583443104145457,0.3704683103255246,0.3843595718534596,0.4000159280363107,0.4170370937719598,0.43825940076348696,0.46535624847682355,0.5075052868026542,0.9417349149208706,1.0,0.4090563936768954,382.0,1.0,50,1150,7828,772027,no_split,wide,individual,1,0.44654035568237305
0,0.0,0.5399775268372289,0.39975107174526175,0.4245094188001585,0.44853972279536497,0.47231296432985814,0.49830351437368514,0.5312469666565259,0.5748521483428146,0.6323295049416713,0.7337194905425323,1.508679051323863,0.9847619047619047,0.5500599837774516,0.0,0.9802659574468086,50,1150,7840,772027,no_split,wide,individual,1,0.4451315402984619
1,1.0,0.5602502744817411,0.40774599867448924,0.43459939494820615,0.46179710862629886,0.48926395532511047,0.5212602805097144,0.5587986779831026,0.6007968762305748,0.6650762951634913,0.7645608576903548,1.4812430372137297,0.9757219251336898,0.5500599837774516,0.0,0.9802659574468086,50,1150,7840,772027,no_split,wide,individual,1,0.4451315402984619
0,0.0,0.45120782221070777,0.36480625351971735,0.38489253874908275,0.40130429911165777,0.4180866019951531,0.43567866102911623,0.45684151001402495,0.48071000686488435,0.5097909042946949,0.5582702479335511,1.0157642226914045,1.0,0.4603049479720071,382.0,1.0,50,1150,7924,772027,no_split,wide,individual,1,0.4506869316101074
1,1.0,0.4694020737333064,0.38619450592678467,0.40634184478777174,0.4237035130481908,0.43999363492325716,0.45693011141459705,0.4753927928993253,0.4970054473288703,0.5240289320799856,0.567839235724475,0.9835453288578537,1.0,0.4603049479720071,382.0,1.0,50,1150,7924,772027,no_split,wide,individual,1,0.4506869316101074
0,0.0,0.4369229337155864,0.3522726939881314,0.37150196481845554,0.3875232773724894,0.4035734770128093,0.42050050982479104,0.43970263092563805,0.4620730271257641,0.49140054608405487,0.5418246794520726,1.0796599007433048,1.0,0.4464018729883188,0.0,1.0,50,1150,7939,772027,no_split,wide,individual,1,0.44617366790771484
1,1.0,0.4559312321507998,0.35952768714483885,0.38289902926129654,0.40138124703579536,0.42069162243382485,0.4398777189742392,0.4619691340262733,0.48789588936135514,0.5189977427263931,0.5707713459026216,0.9508494927241811,1.0,0.4464018729883188,0.0,1.0,50,1150,7939,772027,no_split,wide,individual,1,0.44617366790771484
0,0.0,0.4449867795670129,0.3276730884181907,0.3472256465469375,0.3649602333766054,0.38522188683819386,0.40797048180181367,0.4353122439051915,0.47088833303676264,0.5249508050275428,0.6082490701440166,1.3407583272281989,0.9842696629213483,0.45719910537875647,0.0,0.9771349862258953,50,1150,8026,772027,no_split,wide,individual,1,0.4452657699584961
1,1.0,0.4689493431868124,0.338280509750733,0.36290728600881117,0.38631279244524747,0.409633900516402,0.43780843609301756,0.4669148909878371,0.5027819027336543,0.5554561631215912,0.6369166954352267,1.410968274916143,0.9702702702702702,0.45719910537875647,0.0,0.9771349862258953,50,1150,8026,772027,no_split,wide,individual,1,0.4452657699584961
0,0.0,0.46428783417664454,0.36243466477932684,0.3799169527005381,0.3956329755955701,0.4129973883575007,0.43338723868075735,0.4586988787631063,0.4909821013682544,0.5343331709592843,0.6079016293371152,1.1986323886791606,0.9872631578947368,0.4679326236503288,0.0,0.9850526315789474,50,1150,808,772027,no_split,wide,individual,1,0.44415950775146484
1,1.0,0.47157741312401297,0.3714955636943824,0.3911600169866791,0.40763423640868657,0.425396155239346,0.4452413998985092,0.46819669875306047,0.49682544998474265,0.5360093305598034,0.6039894570230031,1.4902849508188014,0.9828421052631579,0.4679326236503288,0.0,0.9850526315789474,50,1150,808,772027,no_split,wide,individual,1,0.44415950775146484
0,0.0,0.43680451591607006,0.326861636237302,0.34592977806639247,0.36445748342805606,0.38326499122636826,0.4051658989875197,0.4301775519103917,0.4621746386796737,0.509217535286461,0.5855668721072361,1.27555883190664,0.9636649214659686,0.4431424446407976,0.0,0.9590078328981724,50,1150,8311,772027,no_split,wide,individual,1,0.44699621200561523
1,1.0,0.44944736332008395,0.3283436673367654,0.3491950312946997,0.36842546171773494,0.38954767701929216,0.4133964614258435,0.44522872297066396,0.48005787364095664,0.5325525399620056,0.6164062923677038,1.356243587339005,0.954375,0.4431424446407976,0.0,0.9590078328981724,50,1150,8311,772027,no_split,wide,individual,1,0.44699621200561523
0,0.0,0.44889560519425536,0.3627068827158931,0.37813684897387406,0.39166286629205244,0.4070497557858984,0.4233387063948128,0.4437807269488219,0.46937010468196594,0.5055188009645357,0.5665640816770621,1.2424808289886058,0.9909375,0.4582390145857898,0.0,0.9873544973544973,50,1150,833,772027,no_split,wide,individual,1,0.44582462310791016
1,1.0,0.4678838242802769,0.3677409502686652,0.38533760247226057,0.4029105693406447,0.42097837336110105,0.44174199529261987,0.46551255512639467,0.4961840174500441,0.5364416277279481,0.602149086773324,1.358707918574417,0.9836559139784946,0.4582390145857898,0.0,0.9873544973544973,50,1150,833,772027,no_split,wide,individual,1,0.44582462310791016
0,0.0,0.5533266454442907,0.35920549521575695,0.3924116705993696,0.42346871890239113,0.45743761100605906,0.49746578169043293,0.5438106483047619,0.6020621991788486,0.6874153473531294,0.8298921318218969,1.4676975934755083,0.975108695652174,0.5644097517897666,0.0,0.9707027027027028,50,1150,837,772027,no_split,wide,individual,1,0.4459390640258789
1,1.0,0.5753736849487321,0.38038645829533313,0.4169958525238719,0.44988755970642086,0.48497198377224515,0.5223937466421462,0.5695922140314315,0.6283230861049695,0.7100312996930603,0.8464776922225437,1.476291910694354,0.9663440860215053,0.5644097517897666,0.0,0.9707027027027028,50,1150,837,772027,no_split,wide,individual,1,0.4459390640258789
0,0.0,0.3823348774826458,0.3066650879231414,0.3217837930414615,0.33464352021702587,0.34855451013771377,0.3635425004253931,0.38110728625504714,0.40293381878150714,0.4310718964065096,0.4805545101377138,0.9265545101377138,0.9991623036649214,0.39277712135148024,0.0,0.9977894736842106,50,1150,8446,772027,no_split,wide,individual,1,0.4449620246887207
1,1.0,0.4033298651554345,0.3175259220209287,0.3354848037916347,0.3509328584467057,0.36631902341834843,0.3831483378063731,0.40459485655810973,0.4265872293179991,0.45942603311322083,0.514652539150347,1.0779306176655024,0.9964021164021164,0.39277712135148024,0.0,0.9977894736842106,50,1150,8446,772027,no_split,wide,individual,1,0.4449620246887207
0,0.0,0.4150911755406777,0.33016601663527523,0.34556459806895734,0.3598339827182586,0.3754989454317736,0.3915532127307488,0.41138761875823415,0.4354130617695629,0.46987125342897895,0.5281912633408825,1.256871253428979,0.9896296296296296,0.42539860827736575,0.0,0.9838297872340426,50,1150,845,772027,no_split,wide,individual,1,0.44554948806762695
1,1.0,0.43581628093637137,0.3331378676889688,0.35026574020867535,0.3673978271773524,0.38604161800729053,0.40690315451904835,0.43214926396032954,0.46457540354844,0.5071815446188308,0.5791514350919218,1.2697893777291394,0.9779679144385027,0.42539860827736575,0.0,0.9838297872340426,50,1150,845,772027,no_split,wide,individual,1,0.44554948806762695
0,0.0,0.4792489693344379,0.3674407353345042,0.38873807002543026,0.40774747338288236,0.427661449212451,0.4484770352442745,0.4738349727517417,0.506101219678023,0.5531485101367426,0.6293857093639209,1.4784924264986452,0.9952879581151832,0.49075492469404103,0.0,0.9947368421052631,50,1150,8521,772027,no_split,wide,individual,1,0.44593286514282227
1,1.0,0.5023826361950158,0.3774281714793147,0.4014321788235785,0.42340203113129354,0.4463248811720911,0.47226221297067983,0.5027273608844156,0.5376133298109923,0.5833531693989346,0.6666166306845736,1.4036614492124508,0.9941798941798942,0.49075492469404103,0.0,0.9947368421052631,50,1150,8521,772027,no_split,wide,individual,1,0.44593286514282227
0,0.0,0.5566382410072536,0.414841587058744,0.4427634855302715,0.46778451193062864,0.49418794650354225,0.5216253523345078,0.5540619218021161,0.5975944655631592,0.6494058588153109,0.7415167154178385,1.4941744999288953,0.9980434782608696,0.5583705329661128,0.0,0.9979032258064516,50,1150,8704,772027,no_split,wide,individual,1,0.44611668586730957
1,1.0,0.5600659676492518,0.4173399722194038,0.4448296805536533,0.4715650070490939,0.497488877391828,0.5253311479444384,0.5586519072230728,0.5984891049542338,0.6534864215588283,0.7488639372292337,1.454494024186878,0.9977659574468085,0.5583705329661128,0.0,0.9979032258064516,50,1150,8704,772027,no_split,wide,individual,1,0.44611668586730957
0,0.0,0.46845558301863777,0.3697232036517883,0.39706324239653634,0.41790859750145093,0.43835952759970737,0.4578727666375385,0.47886191875931194,0.5046017841599076,0.5332202118939006,0.5806131128990689,0.8850148839247963,1.0,0.47276134061244357,0.0,1.0,50,1150,8755,772027,no_split,wide,individual,1,0.4461324214935303
1,1.0,0.4771384643542131,0.38680632035655094,0.41138667157693204,0.43168125492012976,0.44864662899956836,0.4668906820694947,0.4855241549272982,0.507703945817806,0.5362914909034137,0.581830799597886,1.0417039458178061,1.0,0.47276134061244357,0.0,1.0,50,1150,8755,772027,no_split,wide,individual,1,0.4461324214935303
0,0.0,0.4423026606638023,0.34527454558284665,0.3622202717700022,0.3788186013339848,0.3956209901120261,0.41511174233166515,0.43718108892680657,0.46731105243854165,0.506554737630456,0.5755666789166254,1.3378735490057605,0.9876041666666666,0.44792891066380225,0.0,0.9853645833333333,50,1150,8785,772027,no_split,wide,individual,1,0.44598913192749023
1,1.0,0.4535551606638023,0.34771370979207844,0.3674605811483149,0.3851777253105996,0.4038109855720994,0.42488158979899543,0.44894807536856796,0.48018672689796144,0.5253309360619826,0.5988446130144977,1.288920083026702,0.983125,0.44792891066380225,0.0,0.9853645833333333,50,1150,8785,772027,no_split,wide,individual,1,0.44598913192749023
0,0.0,0.40358010737351696,0.30724332295528334,0.32607713113365466,0.3432451196296798,0.359987741445128,0.37986390862675334,0.40110981922282085,0.4276121189421038,0.4628134954221649,0.5290319733983282,1.1364188249942786,0.9956613756613757,0.41676607287672385,0.0,0.993580901856764,50,1150,8788,772027,no_split,wide,individual,1,0.4454364776611328
1,1.0,0.4300221764943095,0.31357125921527274,0.33568155207434325,0.35515277297364467,0.37539560401556066,0.3992433879623264,0.42789483235273135,0.4609181610309545,0.508561757910413,0.5888870077634243,1.3278354728199502,0.9914893617021276,0.41676607287672385,0.0,0.993580901856764,50,1150,8788,772027,no_split,wide,individual,1,0.4454364776611328
0,0.0,0.4505575785781887,0.3532266962011109,0.3716410666823595,0.3888435155064587,0.40576005420878897,0.42380844301905185,0.44565961751073996,0.4727954014480524,0.509554198356851,0.575860661929748,1.4397449180751014,0.981904761904762,0.46888754283575934,0.0,0.9706914893617021,50,1150,916,772027,no_split,wide,individual,1,0.4462738037109375
1,1.0,0.4874135494918066,0.35569127622255226,0.37675702698205144,0.3985215603680519,0.4221418085539345,0.44823834867058754,0.4800799527168082,0.5262733417838656,0.5866751211989039,0.6762391894345425,1.3055431549999177,0.9593582887700535,0.46888754283575934,0.0,0.9706914893617021,50,1150,916,772027,no_split,wide,individual,1,0.4462738037109375
0,0.0,0.40031510773619206,0.3176450879195583,0.3322653202240587,0.34589184704664355,0.36030105162765086,0.3763658796862179,0.39464114598987304,0.4187893282383903,0.45331117391976594,0.5108896739681984,1.1807478865106809,0.9896842105263158,0.41239003548864406,0.0,0.9826771653543307,50,1150,985,772027,no_split,wide,individual,1,0.44306349754333496
1,1.0,0.4244017437240675,0.32396297986274614,0.343392572068102,0.3606848866566053,0.37961319625642803,0.4000271495939487,0.4241960450020964,0.45271357055825423,0.49285609943651054,0.5571960450020964,1.0946490569082656,0.9757068062827225,0.41239003548864406,0.0,0.9826771653543307,50,1150,985,772027,no_split,wide,individual,1,0.44306349754333496
0,0.0,0.4315753758148202,0.343242446119644,0.3604910863712738,0.37483590235965913,0.39072751670944905,0.4070119116344198,0.4259472667018787,0.4510119116344198,0.4865204186011004,0.549694753238769,1.2850051666264135,0.995609756097561,0.45579608276420125,0.0,0.9904020100502513,50,1150,275,772027,no_split,narrow,individual,1,0.4471414089202881
1,1.0,0.4815227404047356,0.3549398581686711,0.37910416318141843,0.40292504110225574,0.4258459150911634,0.4513389546128181,0.4817199834508584,0.5186750978553093,0.5692450965059163,0.6498731813698022,1.3497456357973534,0.9848704663212435,0.45579608276420125,0.0,0.9904020100502513,50,1150,275,772027,no_split,narrow,individual,1,0.4471414089202881
0,0.0,0.4586924206616373,0.36749600039072516,0.3829155038955425,0.3979810904941101,0.413278149436823,0.430862468605849,0.45209393392500974,0.48009121581432934,0.5185903353681843,0.5859253665959017,1.2284061367175365,0.991904761904762,0.4710112648174815,0.0,0.9871717171717171,50,1150,808,772027,no_split,narrow,individual,1,0.44332432746887207
1,1.0,0.4849196372514991,0.38072425871595134,0.40085684099047975,0.4202514959216105,0.4388894188491378,0.4595434798127399,0.48377630634690005,0.5137949130930952,0.5532180960034365,0.6204497719686772,1.1790830614822883,0.9818279569892473,0.4710112648174815,0.0,0.9871717171717171,50,1150,808,772027,no_split,narrow,individual,1,0.44332432746887207
0,0.0,0.44721370334647764,0.36153736216653387,0.3755276698429496,0.38866837922663794,0.40255225634396113,0.4186149020100659,0.43829896581131966,0.46299189241227573,0.49978813962111873,0.5678312174478197,1.2886954597476332,0.9932,0.4694397900131443,0.0,0.9816,50,1150,833,772027,no_split,narrow,individual,1,0.4435117244720459
1,1.0,0.4948410319179062,0.3761248909131401,0.39898662001775104,0.4210465006274011,0.4447614405088634,0.4691364860288613,0.4981248909131401,0.5309895747870934,0.575830532530101,0.6449407439077015,1.2146181616888665,0.9683428571428572,0.4694397900131443,0.0,0.9816,50,1150,833,772027,no_split,narrow,individual,1,0.4435117244720459
0,0.0,0.571178666970498,0.3554293409430177,0.391783514689253,0.4269759406103126,0.4645135291606216,0.5073245249006244,0.5583611174749339,0.6242696914023357,0.7245864826306547,0.8872690282923062,1.4439128305707354,0.9717277486910995,0.5857328281602051,0.0,0.966063829787234,50,1150,837,772027,no_split,narrow,individual,1,0.4467144012451172
1,1.0,0.600759016199308,0.3791866260859448,0.4220966557694391,0.46097300033755123,0.5023320564042487,0.5467591811201011,0.6032699124390122,0.6659258563872887,0.7561149969349356,0.9024540978377832,1.447790710736478,0.9602162162162162,0.5857328281602051,0.0,0.966063829787234,50,1150,837,772027,no_split,narrow,individual,1,0.4467144012451172
0,0.0,0.4149472397343752,0.3322165540269568,0.3470383113449398,0.3609258265875033,0.37484093237552096,0.39029142905725744,0.40884093237552094,0.43311669609066267,0.46673586736971495,0.5274313722404268,1.3905060453825426,0.9908333333333333,0.4301901575151239,0.0,0.9840641711229946,50,1150,845,772027,no_split,narrow,individual,1,0.4445481300354004
1,1.0,0.4462705982508587,0.33929209303670715,0.3592168506090062,0.3784855850036263,0.39800191083197667,0.42048589196863595,0.4453609129504187,0.47723609748607426,0.5199509490185636,0.5882269669790381,1.2175323779506921,0.9769230769230769,0.4301901575151239,0.0,0.9840641711229946,50,1150,845,772027,no_split,narrow,individual,1,0.4445481300354004
0,0.0,0.44886348206052995,0.345626226314797,0.3639512072722311,0.38053454593402725,0.39767717442464434,0.41649169161302,0.4390257066439321,0.47082374535098487,0.515368800441987,0.5928770979308867,1.3890098562181494,0.993072625698324,0.47329407613202606,0.0,0.9856830601092896,50,1150,916,772027,no_split,narrow,individual,1,0.44134974479675293
1,1.0,0.4966795110988593,0.36574406958315997,0.39213699794460694,0.41834026597035445,0.4435361951498757,0.46970815992366066,0.4995951252023323,0.5344870342212761,0.5826765759726955,0.6621525903612516,1.3347732704081692,0.9786096256684492,0.47329407613202606,0.0,0.9856830601092896,50,1150,916,772027,no_split,narrow,individual,1,0.44134974479675293
0,0.0,0.4062653756163135,0.3217801001082938,0.33654936903800753,0.3496282433678746,0.36338479457014866,0.3793847945701486,0.3986730759117632,0.42427821616918204,0.4591404937671361,0.5222902333046802,1.3370681702213851,0.9870056497175141,0.4237342984953728,0.0,0.9771815718157182,50,1150,985,772027,no_split,narrow,individual,1,0.44495320320129395
1,1.0,0.43983846177450553,0.32840250879998484,0.3493989659540176,0.3694235629220308,0.39111920469598216,0.4149441787124732,0.44082255471134985,0.473624622717236,0.5154153914219035,0.5836822847880824,1.223130777482703,0.968125,0.4237342984953728,0.0,0.9771815718157182,50,1150,985,772027,no_split,narrow,individual,1,0.44495320320129395
0,0.0,0.40200284654467555,0.3195627256980841,0.3329249059438289,0.34571426390952076,0.3585551181787128,0.37288068322397516,0.39091213069199154,0.41602118866774523,0.45335379050000707,0.5199503716135822,1.2689034844235294,0.99125,0.4284349051571157,0.0,0.9765789473684211,50,1150,1108,772027,no_split,narrow,individual,1,0.445676326751709
1,1.0,0.45123903415608374,0.3380894751204252,0.3610174973749572,0.3839398402920583,0.4059461575195042,0.4290923358131573,0.4543266814337204,0.4862600217821408,0.5260733326694137,0.590903276288061,1.3705024587157437,0.9639215686274509,0.4284349051571157,0.0,0.9765789473684211,50,1150,1108,772027,no_split,narrow,individual,1,0.445676326751709
0,0.0,0.4367930462423195,0.3251102680409645,0.34433333927888493,0.36160465012419696,0.3797229883698402,0.4007373157111613,0.42535499842788144,0.45860331869102877,0.5053544628612148,0.5947326185374658,1.3464791253609945,0.9874371859296482,0.45743317588315263,0.0,0.9777395577395578,50,1150,1507,772027,no_split,narrow,individual,1,0.44637036323547363
1,1.0,0.47718022299144974,0.3410732447441437,0.36742741692559294,0.3914758353755588,0.4178224645259283,0.4456131451643757,0.47711726388876186,0.5184768223711894,0.5707035808035916,0.6540891210470828,1.282308981815947,0.9684615384615385,0.45743317588315263,0.0,0.9777395577395578,50,1150,1507,772027,no_split,narrow,individual,1,0.44637036323547363
0,0.0,0.4526798517391558,0.34150724672521965,0.36186113852352414,0.3797061899679087,0.4006308607781182,0.4223185248139057,0.4480995485381506,0.4807939851826689,0.5267093261490515,0.6031195928881423,1.2797257798969017,0.9917204301075269,0.459555225268402,0.0,0.9901047120418848,50,1150,1538,772027,no_split,narrow,individual,1,0.4466819763183594
1,1.0,0.4660798144339111,0.35797569971275817,0.3779999429606154,0.39701503466385324,0.4155122278820062,0.43702358126645846,0.4623036449386551,0.4942403893474534,0.5340412987141735,0.6078765281375571,1.4454717810638706,0.9885714285714285,0.459555225268402,0.0,0.9901047120418848,50,1150,1538,772027,no_split,narrow,individual,1,0.4466819763183594
0,0.0,0.45546367481894806,0.36332571093412513,0.37913590496194827,0.39274220493852513,0.4077159681934629,0.42490346160753995,0.4456916556856981,0.47105066667410417,0.509042768225622,0.5890619283410062,1.277916814258876,0.9962765957446809,0.4874808286382713,0.0,0.9863387978142076,50,1150,1582,772027,no_split,narrow,individual,1,0.44266462326049805
1,1.0,0.5212966989642982,0.3897271240792793,0.4196351303257697,0.4459678412669534,0.47065794354269214,0.4972692503511297,0.5271062039448433,0.5630359701723326,0.6097628964458358,0.6804814948949648,1.3556962188140638,0.9758426966292135,0.4874808286382713,0.0,0.9863387978142076,50,1150,1582,772027,no_split,narrow,individual,1,0.44266462326049805
0,0.0,0.4297847760768004,0.3377576071540758,0.350910985657847,0.3635845891448146,0.3764286947552027,0.39232820698715737,0.41270260939720577,0.4403014364007027,0.48361258813215724,0.5751560066920168,1.430460475238587,0.9867336683417085,0.46602294436183456,0.0,0.9546867167919799,50,1150,1583,772027,no_split,narrow,individual,1,0.4419384002685547
1,1.0,0.5020799218054436,0.3762157238828138,0.4043398844049441,0.42740143557372956,0.4512183116028653,0.47655627667522243,0.5043258715036,0.5378030595228924,0.5837619899387311,0.6586316426277555,1.404798306053336,0.9228,0.46602294436183456,0.0,0.9546867167919799,50,1150,1583,772027,no_split,narrow,individual,1,0.4419384002685547
0,0.0,0.5406293324466821,0.3934172230649578,0.4166543904109667,0.4389460522260133,0.4630453565501726,0.49157471636309447,0.5261105516601424,0.5715097872337226,0.6388167096303278,0.7552925856052882,1.4971541098227745,0.9812021857923497,0.5608188559559597,0.0,0.9724725274725274,50,1150,1597,772027,no_split,narrow,individual,1,0.4449138641357422
1,1.0,0.5812314681227985,0.4134097585207543,0.4467432636503256,0.4750826921439648,0.5060647653717267,0.540113360234001,0.5794128446630682,0.6279125404778565,0.6940916343358307,0.8018874710417511,1.5150826921439648,0.963646408839779,0.5608188559559597,0.0,0.9724725274725274,50,1150,1597,772027,no_split,narrow,individual,1,0.4449138641357422
0,0.0,0.4065466945232023,0.32112367316614715,0.33724931203406766,0.35111772185621026,0.3663543529185367,0.3818891153075437,0.40033649090414053,0.4240746779522163,0.45723672613258914,0.5181876655261357,1.439170715188695,0.9936612021857923,0.43160953605325697,0.0,0.9830933333333334,50,1150,1601,772027,no_split,narrow,individual,1,0.44580769538879395
1,1.0,0.45549755688659027,0.32891226023570347,0.35179910758471955,0.3743554411448102,0.4002945617114886,0.42717245695966805,0.4572383919582901,0.4944171859066232,0.5451382480326256,0.6226851876901892,1.2752433894353927,0.9730208333333333,0.43160953605325697,0.0,0.9830933333333334,50,1150,1601,772027,no_split,narrow,individual,1,0.44580769538879395
0,0.0,0.47720137711461136,0.34916151999299105,0.36917428968019705,0.38762453099416133,0.4084000222647165,0.4319637227081743,0.46020206143707565,0.5007989686811309,0.5572726460799168,0.6695753368832271,1.4571577126342121,0.9911881188118812,0.5068424736758804,0.0,0.9830107526881721,50,1150,1614,772027,no_split,narrow,individual,1,0.44442057609558105
1,1.0,0.5420630707663294,0.38926812140475714,0.42320125885120996,0.4522453374399461,0.47969398906366206,0.5094779533917988,0.543664384424913,0.5843368556677698,0.6400453945152142,0.7373900585587058,1.440529537516989,0.9732941176470589,0.5068424736758804,0.0,0.9830107526881721,50,1150,1614,772027,no_split,narrow,individual,1,0.44442057609558105
0,0.0,0.4666015107627596,0.34911100527423705,0.3736435981321019,0.39605109682018574,0.4170641609685333,0.4399816755533575,0.4658096913695721,0.496928251238559,0.5409328952341054,0.6203086510599611,1.3626260571174118,1.0,0.48935325836380633,0.0,0.9998421052631579,50,1150,1638,772027,no_split,narrow,individual,1,0.4466066360473633
1,1.0,0.510047058945663,0.3676217745037985,0.3993626156315184,0.4288544983130855,0.4577769778192744,0.4862670513192479,0.5176951044220757,0.5561736822777386,0.6067425602515784,0.6829136046007086,1.3742550986414124,0.9996984924623116,0.48935325836380633,0.0,0.9998421052631579,50,1150,1638,772027,no_split,narrow,individual,1,0.4466066360473633
0,0.0,0.3928829187178435,0.31145425716763064,0.32688916452663036,0.33933432669651253,0.35291127868670485,0.36727566799337763,0.38445947397823327,0.4073207577618783,0.44051070767755174,0.5001747927327618,1.3263162090723741,0.9927551020408163,0.4184360588795686,0.0,0.9795148247978437,50,1150,1657,772027,no_split,narrow,individual,1,0.4458122253417969
1,1.0,0.4470555758607006,0.32153996354437486,0.3460123780940309,0.370017187822078,0.3943317384644927,0.4214905091794237,0.4524102727692802,0.4879853866449544,0.5328694004842318,0.6036178234400812,1.2474147322463631,0.9646857142857143,0.4184360588795686,0.0,0.9795148247978437,50,1150,1657,772027,no_split,narrow,individual,1,0.4458122253417969
0,0.0,0.4524996059564367,0.36284007579383387,0.3773488411653277,0.39185583927031153,0.4059608315092422,0.42354322970938074,0.44525817704501325,0.47325974002731375,0.5119281297691533,0.5790097490551861,1.3887057369053482,0.9962051282051282,0.473871477881466,0.0,0.9920304568527919,50,1150,1663,772027,no_split,narrow,individual,1,0.44174814224243164
1,1.0,0.49481376444116804,0.3890267706809111,0.4100105981890386,0.42964968142876864,0.449327733955104,0.4695164324404466,0.4933383110587742,0.5240670042464123,0.5656614464751003,0.6348785117607633,1.3138418401646583,0.9879396984924623,0.473871477881466,0.0,0.9920304568527919,50,1150,1663,772027,no_split,narrow,individual,1,0.44174814224243164
0,0.0,0.49323800015675107,0.3637110507455608,0.38621209040907856,0.4095074049903894,0.43163325386930335,0.4567353769407656,0.4870527564418617,0.5238896668676201,0.5760944577086841,0.6716060080619718,1.4506010006705767,0.9974585635359116,0.5082870056816129,0.0,0.9958011049723757,50,1150,1761,772027,no_split,narrow,individual,1,0.44678163528442383
1,1.0,0.5233360112064748,0.38724805971729587,0.41527646724584094,0.44036252681464694,0.4650449671201332,0.4926527698745763,0.5236972437084847,0.5606683658860901,0.6125666427872627,0.6992621296251393,1.4503921665970037,0.9941436464088398,0.5082870056816129,0.0,0.9958011049723757,50,1150,1761,772027,no_split,narrow,individual,1,0.44678163528442383
0,0.0,0.4489509890628387,0.3380285796019745,0.3578856119387192,0.37589536902481685,0.3952231834571788,0.4164173223352228,0.44090681576248597,0.47342063854507127,0.5172724129766418,0.5981269630267586,1.380610088564115,0.9876086956521739,0.469604768733814,0.0,0.9776756756756757,50,1150,1768,772027,no_split,narrow,individual,1,0.44484877586364746
1,1.0,0.49003646475241325,0.3424496856362626,0.36745303939082025,0.39360249692271354,0.4216062059715558,0.4534285031175594,0.48861756679957685,0.5319424288212508,0.589774369505609,0.6910613595500467,1.4181211030017737,0.9678494623655914,0.469604768733814,0.0,0.9776756756756757,50,1150,1768,772027,no_split,narrow,individual,1,0.44484877586364746
0,0.0,0.37545298373906966,0.29031077147047757,0.3055065712888311,0.31978201186638006,0.33425163659215096,0.3504715016053901,0.370507526738241,0.39386087435549305,0.42863424993360993,0.48598874941298553,1.0963712070075642,0.9811173184357542,0.39290088831888026,0.0,0.967379679144385,50,1150,1813,772027,no_split,narrow,individual,1,0.44554877281188965
1,1.0,0.40891716995880895,0.29516288163181587,0.3143087113955135,0.33398874941298556,0.35516280740840545,0.37936525554140454,0.4062864209637552,0.4419551529012601,0.4891929379771632,0.5629576966476277,1.212891312811324,0.9547692307692308,0.39290088831888026,0.0,0.967379679144385,50,1150,1813,772027,no_split,narrow,individual,1,0.44554877281188965
0,0.0,0.3886723744427758,0.30143702789976196,0.3160783186403053,0.32869609109246417,0.3421615352707271,0.35882751393395834,0.3786687661737714,0.40619746179732197,0.44252861230036883,0.5145246007219255,1.249747224621594,0.9900487804878049,0.4104834947035825,0.0,0.9775247524752475,50,1150,1821,772027,no_split,narrow,individual,1,0.44469308853149414
1,1.0,0.4329522366807952,0.32001948477773046,0.34234765664397,0.3631176747665627,0.38490639184679265,0.4084262001498521,0.4353519096930266,0.46727659578941994,0.5117078077343746,0.5781343775474476,1.2107472246215938,0.9646231155778895,0.4104834947035825,0.0,0.9775247524752475,50,1150,1821,772027,no_split,narrow,individual,1,0.44469308853149414
0,0.0,0.38740659114447007,0.30493113938594707,0.318880276384243,0.3323781470086303,0.3466842646080429,0.36329367238392485,0.38224147902563227,0.4065255699946067,0.4405631713900684,0.5004365470429258,1.1208662250687693,0.9902762430939227,0.39674368794710313,0.0,0.985531914893617,50,1150,3286,772027,no_split,narrow,individual,1,0.4451417922973633
1,1.0,0.40541042908185493,0.3209278681813554,0.3371170115495412,0.3516841565077852,0.3671837799950379,0.38399152097221884,0.40344846614697477,0.42818637469847964,0.4621566286735584,0.517931139385947,1.0854246272409516,0.9811282051282051,0.39674368794710313,0.0,0.985531914893617,50,1150,3286,772027,no_split,narrow,individual,1,0.4451417922973633
0,0.0,0.4697513914273616,0.35952888440785297,0.38236138674745945,0.40108064659962306,0.42073891332806596,0.44108014324229117,0.46475619765814,0.495893991450344,0.539092322996844,0.611565001957438,1.4527439866315885,0.9984090909090909,0.4964081084603286,0.0,0.9967582417582418,50,1150,3292,772027,no_split,narrow,individual,1,0.44690799713134766
1,1.0,0.5213633329167234,0.3705269332015465,0.3998559142243877,0.42773127177562464,0.45488340167894675,0.4877301535848953,0.5255612527004232,0.5707447756845306,0.6282715035454183,0.7131611516769398,1.4312074893403701,0.9952127659574468,0.4964081084603286,0.0,0.9967582417582418,50,1150,3292,772027,no_split,narrow,individual,1,0.44690799713134766
0,0.0,0.39618839158352165,0.3067860248533866,0.3228878423089763,0.3375313944930638,0.35280391662337285,0.3688133944665971,0.3896824587903135,0.414790467808924,0.4515905819127888,0.5171942771850309,1.2584296183961137,0.9981818181818182,0.43020216087305563,0.0,0.9926233766233766,50,1150,3487,772027,no_split,narrow,individual,1,0.44613027572631836
1,1.0,0.4623262763131711,0.33680563971708155,0.3644904281416007,0.38994575381787516,0.4139523366398309,0.439484707017645,0.4672369510341328,0.5011479703393508,0.5452560897387619,0.6160400480658511,1.2655006673012112,0.9873737373737373,0.43020216087305563,0.0,0.9926233766233766,50,1150,3487,772027,no_split,narrow,individual,1,0.44613027572631836
0,0.0,0.4030210485186817,0.33785133836968023,0.34982299597807937,0.36065640153135964,0.37203725627890344,0.3846145515460122,0.39856733598060035,0.4169018975164081,0.442024221990579,0.4881342947545747,1.0926732583169134,0.9941293532338309,0.42254526904043843,0.0,0.9846192893401016,50,1150,3580,772027,no_split,narrow,individual,1,0.44422245025634766
1,1.0,0.4428787836770866,0.3471991550988816,0.3656250947295347,0.3830049361857068,0.4008859802674836,0.4213355573676642,0.4444129091454296,0.47269092752873765,0.5077194754441336,0.5685388857926977,1.2870211869033945,0.9747150259067358,0.42254526904043843,0.0,0.9846192893401016,50,1150,3580,772027,no_split,narrow,individual,1,0.44422245025634766
0,0.0,0.47331742862587445,0.3629896277147828,0.38070649438574805,0.3978919102455881,0.41593046554903,0.4364864832469722,0.46178025205058604,0.493837910203964,0.5419008456317337,0.6325464967430374,1.4810650363538482,0.9624731182795699,0.4887747933261656,0.0,0.941767955801105,50,1150,3625,772027,no_split,narrow,individual,1,0.44646620750427246
1,1.0,0.5051104173844277,0.37029488807028915,0.3933392165512846,0.41635315676768286,0.44096934656647985,0.46968816738866737,0.5038625904207213,0.5435463164613127,0.5975465909750174,0.6889805133557143,1.5033591311461392,0.9198863636363637,0.4887747933261656,0.0,0.941767955801105,50,1150,3625,772027,no_split,narrow,individual,1,0.44646620750427246
0,0.0,0.5177847483764214,0.40519192803011744,0.42955089105604316,0.44982684523719996,0.47003102946954867,0.4918208696564866,0.5165689784423572,0.5491415002194381,0.5906505955013431,0.6615160748299967,1.3787534489449524,0.9995505617977528,0.5453889397835041,0.0,0.9995663956639567,50,1150,3754,772027,no_split,narrow,individual,1,0.4469633102416992
1,1.0,0.5711143118801569,0.41702772820711714,0.45049864786733984,0.4805676640078501,0.5105949859014037,0.5435345562702747,0.5783460704585358,0.6206318142271791,0.6766562633936536,0.7622227777585295,1.3666808267785795,0.9995811518324608,0.5453889397835041,0.0,0.9995663956639567,50,1150,3754,772027,no_split,narrow,individual,1,0.4469633102416992
0,0.0,0.4088623256788495,0.3222851961976244,0.3386886414442935,0.3530806507013419,0.3679826166929126,0.38434404697823155,0.40563380434520535,0.43125966339394833,0.4662641083702264,0.5280769750292806,1.0599252268739128,0.9984042553191489,0.4213987152720587,0.0,0.9981865284974093,50,1150,3910,772027,no_split,narrow,individual,1,0.45134782791137695
1,1.0,0.4333019538757118,0.34457424304394485,0.3630742512142778,0.3802734660406225,0.39607360716699236,0.4140791144049334,0.43379721867105614,0.45794828015203237,0.4902126541895003,0.5463295387540572,1.1192510333685444,0.997979797979798,0.4213987152720587,0.0,0.9981865284974093,50,1150,3910,772027,no_split,narrow,individual,1,0.45134782791137695
0,0.0,0.39698307799360394,0.3298645764421059,0.3407553871048352,0.3515781926871552,0.3623492625475006,0.3753460855154626,0.3902557002245559,0.41175703134954444,0.44211881376049966,0.49345574208240883,1.0405781926871553,0.9953591160220995,0.4095221454550753,0.0,0.9913684210526316,50,1150,4222,772027,no_split,narrow,individual,1,0.44171929359436035
1,1.0,0.4209270259099815,0.3467424158919733,0.36231890419215695,0.37539073179018695,0.38910023877682415,0.4038204548391196,0.42137726123340496,0.44135120969453545,0.4707681727744438,0.5144085585446408,1.0185781926871553,0.9877386934673367,0.4095221454550753,0.0,0.9913684210526316,50,1150,4222,772027,no_split,narrow,individual,1,0.44171929359436035
0,0.0,0.45144241316982886,0.3312187797546458,0.3504486673567729,0.36991046675964767,0.38867544999625975,0.4094486673567729,0.4363593638903396,0.47389987189399324,0.5272218201984492,0.6237789299195747,1.4628638479243228,0.9796969696969697,0.48084660419850345,0.0,0.9654911838790932,50,1150,4264,772027,no_split,narrow,individual,1,0.44675517082214355
1,1.0,0.5101030354732652,0.3494914343111497,0.37987485972061574,0.4101828328951343,0.44119686870028574,0.4752405903925811,0.5131899013344935,0.5584788500805962,0.6187875744517555,0.7184572792593283,1.3827446714788323,0.951356783919598,0.48084660419850345,0.0,0.9654911838790932,50,1150,4264,772027,no_split,narrow,individual,1,0.44675517082214355
0,0.0,0.41536690716265323,0.3421492376153581,0.35769241683656083,0.37189561280651856,0.3853918765755362,0.3990716313316044,0.41495174725903383,0.4336707609224222,0.45981767576754873,0.506986433076172,1.057968242219455,0.9997883597883598,0.43696741182103827,0.0,0.99875,50,1150,5281,772027,no_split,narrow,individual,1,0.44536495208740234
1,1.0,0.4597746485832438,0.35583390399067083,0.37766259870913704,0.39916872613453497,0.4196112330497324,0.4401303647964396,0.4634286680494085,0.4938136187117682,0.5311608202959799,0.5914756277478349,1.348266437061427,0.9976536312849162,0.43696741182103827,0.0,0.99875,50,1150,5281,772027,no_split,narrow,individual,1,0.44536495208740234
0,0.0,0.44334492138741916,0.3488974326088607,0.36682380952171234,0.3834422522702265,0.3992965822014647,0.41791612194007743,0.4395380275223788,0.46688749431304494,0.5044440580760958,0.5725243800316522,1.1045693700094719,0.9998913043478261,0.47173610822643214,0.0,0.9994594594594595,50,1150,5332,772027,no_split,narrow,individual,1,0.44556379318237305
1,1.0,0.4998220134865308,0.3857395915654971,0.41285438284988785,0.43579660606722326,0.4577024566950029,0.48201310281746346,0.5061457926293444,0.5358904758017897,0.5754876376486298,0.6369539402857692,1.1718979468577504,0.9990322580645161,0.47173610822643214,0.0,0.9994594594594595,50,1150,5332,772027,no_split,narrow,individual,1,0.44556379318237305
0,0.0,0.4446091997127932,0.3467288407840265,0.36887250244041786,0.38634848945580014,0.40427592581404126,0.42321684192333414,0.44498592216324373,0.47000830062897025,0.5053403418137948,0.5690589064297825,1.3598613467940543,0.9998984771573604,0.4675569367946623,0.0,0.9995384615384615,50,1150,5575,772027,no_split,narrow,individual,1,0.4477229118347168
1,1.0,0.4909802746450676,0.35827097396964536,0.38710400632400066,0.41324406924528806,0.439419498778469,0.4674135730680542,0.4978364892052296,0.5335581759719294,0.5811468998742503,0.6567110119655317,1.2486860936692414,0.9991709844559585,0.4675569367946623,0.0,0.9995384615384615,50,1150,5575,772027,no_split,narrow,individual,1,0.4477229118347168
0,0.0,0.4492997642681946,0.33572027141856386,0.35750804946905596,0.3773227092704761,0.3966583618429008,0.4169745244689002,0.44339193160719625,0.47471686268925467,0.5193661562750124,0.6056042779713481,1.3473411474256527,0.9983419689119171,0.4708132608844577,0.0,0.996938775510204,50,1150,5731,772027,no_split,narrow,individual,1,0.4470977783203125
1,1.0,0.49167810936153705,0.35350871332709394,0.3832709612373733,0.4085057528284082,0.43578812696537705,0.4639101633504724,0.4981462306714536,0.5343732385045381,0.5835108320607972,0.6640766852328048,1.355338856365762,0.9955778894472361,0.4708132608844577,0.0,0.996938775510204,50,1150,5731,772027,no_split,narrow,individual,1,0.4470977783203125
0,0.0,0.4287197914337775,0.34867296902221023,0.3626763146556654,0.3758519026484621,0.3890129795107977,0.4041568292677667,0.4217239363849821,0.44385918957651616,0.47546325151854146,0.535867403230816,1.3503780744306348,0.9979347826086956,0.4637611899647572,0.0,0.9920435967302452,50,1150,5761,772027,no_split,narrow,individual,1,0.44568920135498047
1,1.0,0.49899407154781883,0.3739966233265817,0.4016771510640292,0.427022998760395,0.45235020764876116,0.4785148054517251,0.5068078547144705,0.5407089130900635,0.5828334906421465,0.6508727754886089,1.41852225373971,0.9861202185792349,0.4637611899647572,0.0,0.9920435967302452,50,1150,5761,772027,no_split,narrow,individual,1,0.44568920135498047
0,0.0,0.431072061052807,0.31301635596541577,0.33089779649547507,0.3492924736359006,0.3694792036852706,0.3929601956017862,0.42542496517396255,0.4616108327297996,0.5129607420701648,0.6012688291744936,1.4299772795014691,0.9438095238095238,0.4341279689118856,0.0,0.938590785907859,50,1150,5803,772027,no_split,narrow,individual,1,0.44439077377319336
1,1.0,0.4366821605552946,0.3319296594260987,0.34998707362965015,0.3668373527345594,0.3846399783389399,0.40393393285900875,0.42704586124990007,0.45919244713044094,0.5030054175426513,0.5806618161607217,1.3112924736359004,0.934228855721393,0.4341279689118856,0.0,0.938590785907859,50,1150,5803,772027,no_split,narrow,individual,1,0.44439077377319336
0,0.0,0.48821336292931533,0.35471125269743736,0.3756260532796774,0.3946357637396768,0.4153806380726496,0.4391740277756466,0.46907251328436805,0.5089628007518381,0.573822640374762,0.6898259115615217,1.4791137287928369,0.9864676616915423,0.5215132749968845,0.0,0.9701808785529715,50,1150,5815,772027,no_split,narrow,individual,1,0.4470992088317871
1,1.0,0.5574986638440963,0.38347253477705273,0.42077967820992856,0.45630905267711586,0.48803706736837354,0.5236595916191639,0.5614513380852626,0.6074650208070506,0.6707112526974375,0.771437775501492,1.4809636133173527,0.9525806451612904,0.5215132749968845,0.0,0.9701808785529715,50,1150,5815,772027,no_split,narrow,individual,1,0.4470992088317871
0,0.0,0.4078221951785021,0.33950427680130085,0.3534993711898873,0.36507973695185597,0.3768625972963081,0.3900930470911202,0.4046595235674434,0.4226011427495553,0.4487758932828768,0.4956852088347645,1.037079646381808,0.998876404494382,0.4369510847477394,0.0,0.9948228882833787,50,1150,6055,772027,no_split,narrow,individual,1,0.445650577545166
1,1.0,0.4643846421198254,0.359459508717676,0.38269463088475364,0.4042007415203142,0.4248625972963081,0.44675924319364113,0.470430221772447,0.4971653559212287,0.5349089000733741,0.5938363244685962,1.1581974826030887,0.991005291005291,0.4369510847477394,0.0,0.9948228882833787,50,1150,6055,772027,no_split,narrow,individual,1,0.445650577545166
0,0.0,0.4608088062018091,0.33702564301149446,0.35502109910038937,0.373282152217525,0.39304390626532726,0.41679749817117256,0.44739233067982365,0.48503480561153073,0.5448266767699079,0.6460548974349435,1.469053412506515,0.9801020408163266,0.47688284211125487,0.0,0.9686338797814208,50,1150,6109,772027,no_split,narrow,individual,1,0.44196248054504395
1,1.0,0.49541525998332164,0.362355719199846,0.3882791825712406,0.4123986797846207,0.43582502996958067,0.46176212753989543,0.49349090825546355,0.5317168762441924,0.5813065515383159,0.6701340234222737,1.418267303986103,0.9554117647058824,0.47688284211125487,0.0,0.9686338797814208,50,1150,6109,772027,no_split,narrow,individual,1,0.44196248054504395
0,0.0,0.38769851073174694,0.322379685151683,0.3320756213061052,0.3423096694055766,0.3528369557174001,0.3647497726190779,0.3784571073296275,0.3961092567218725,0.4245291057561216,0.4797081208727387,1.3158493857615936,0.9921698113207548,0.41910581334248853,0.0,0.9693045563549161,50,1150,6214,772027,no_split,narrow,individual,1,0.44155287742614746
1,1.0,0.4515855604326213,0.35007215246789947,0.37208539294820997,0.3918016333364334,0.4108369557174001,0.43171232413980365,0.45532830989977396,0.48313925150645964,0.5196985723975606,0.5787568469890099,1.1866844374478633,0.9456585365853658,0.41910581334248853,0.0,0.9693045563549161,50,1150,6214,772027,no_split,narrow,individual,1,0.44155287742614746
0,0.0,0.4561929158935669,0.34343716062650015,0.3632789851498629,0.381219325486876,0.39934740937349633,0.42079241150285096,0.44772894428156235,0.48329001418682904,0.5290956974247495,0.6137925626555822,1.369975596246579,0.9802127659574468,0.4647618475488522,0.0,0.9742175066312997,50,1150,6253,772027,no_split,narrow,individual,1,0.4455389976501465
1,1.0,0.4732854409414112,0.3495076376793457,0.37197058043861503,0.3930126185652811,0.4149089075177959,0.43895051720675915,0.46819030867343897,0.505290031291671,0.5566720967383562,0.6457197039456234,1.4362897205008707,0.9682539682539683,0.4647618475488522,0.0,0.9742175066312997,50,1150,6253,772027,no_split,narrow,individual,1,0.4455389976501465
0,0.0,0.46040420662953924,0.35861044131634817,0.3787054725343817,0.39534164729335963,0.41313038566593985,0.4321616759029189,0.45484663428392247,0.483736574095123,0.52414009092469,0.5965185549108221,1.3207667073078058,0.9966850828729282,0.48399033081882575,0.0,0.9939130434782608,50,1150,6262,772027,no_split,narrow,individual,1,0.4460294246673584
1,1.0,0.5068196809699534,0.3692191982924758,0.3967667073078058,0.4222920892992235,0.44661360601686645,0.47571882915708796,0.5092867261966657,0.5500142298212484,0.6014543902687998,0.682884820604381,1.4624858966213996,0.9912299465240642,0.48399033081882575,0.0,0.9939130434782608,50,1150,6262,772027,no_split,narrow,individual,1,0.4460294246673584
0,0.0,0.4938697131410818,0.39963263009300787,0.4181409350609984,0.4339716755085459,0.4509552830073864,0.46877975893534507,0.4885495046166415,0.5151259885097693,0.5517787014031762,0.6191095974112832,1.4908997505897468,0.9982887700534759,0.5146571332178081,0.0,0.9975,50,1150,6361,772027,no_split,narrow,individual,1,0.44768261909484863
1,1.0,0.5361336390429342,0.4183912161857952,0.443899750589747,0.4656276465950539,0.48796742631574475,0.5136978467410958,0.5400102793030098,0.572591550735159,0.6161730551867448,0.6814213337342883,1.428358750328331,0.9966850828729282,0.5146571332178081,0.0,0.9975,50,1150,6361,772027,no_split,narrow,individual,1,0.44768261909484863
0,0.0,0.4138402042475144,0.3128475430708004,0.3322960149960881,0.35058199932599476,0.36927367044116666,0.3902449322626913,0.41253172830823004,0.44146474845930234,0.48026273968610933,0.5476698278453548,1.2642394500842764,0.999344262295082,0.4284600106898496,0.0,0.9990526315789474,50,1150,6427,772027,no_split,narrow,individual,1,0.44612812995910645
1,1.0,0.44204084611597844,0.34574904806210544,0.36672174017014336,0.38497466084826926,0.4025332822757982,0.4214128263085284,0.4428169409812792,0.4681052008454817,0.5052391474850535,0.5648836287761391,1.1358088056521085,0.9987817258883249,0.4284600106898496,0.0,0.9990526315789474,50,1150,6427,772027,no_split,narrow,individual,1,0.44612812995910645
0,0.0,0.4617506614143529,0.36580351191315735,0.3819126003226852,0.39778380129408786,0.4137396585796309,0.43219384976894704,0.4547049967042508,0.48421844861898505,0.5249292926781626,0.5925519258232819,1.2221476716103943,0.993193717277487,0.4718366391181477,0.0,0.988707124010554,50,1150,6583,772027,no_split,narrow,individual,1,0.44590139389038086
1,1.0,0.48208356327466256,0.3856915934970404,0.4052678571529651,0.4221892115751282,0.4397391878570014,0.45878731515327054,0.4805046352544021,0.5067831629489713,0.5434036834979168,0.606165771119971,1.2570952750776185,0.9841489361702128,0.4718366391181477,0.0,0.988707124010554,50,1150,6583,772027,no_split,narrow,individual,1,0.44590139389038086
0,0.0,0.43275662913419255,0.34824752860724056,0.3622502020442002,0.37513989292765204,0.38816892153090643,0.40351075953284354,0.4225714492413754,0.44704407728141243,0.4838760149941278,0.5555883664066769,1.4800926947506465,0.9884102564102564,0.45792144964701315,0.0,0.9722051282051282,50,1150,6634,772027,no_split,narrow,individual,1,0.4448697566986084
1,1.0,0.4830862701598335,0.3665893641596987,0.3906789983966209,0.4139218852563872,0.43724414682659074,0.46015809452985823,0.4864422361553217,0.5177450194594073,0.5607944886079165,0.6295961964935529,1.3370316850077724,0.956,0.45792144964701315,0.0,0.9722051282051282,50,1150,6634,772027,no_split,narrow,individual,1,0.4448697566986084
0,0.0,0.44683752344994776,0.364308878372635,0.378333301234879,0.3914505251155835,0.4047984935765472,0.4200635868789553,0.43823854910434934,0.46115457745661476,0.494150897501955,0.555454437192882,1.3498237003006799,0.9983157894736842,0.4876240680113512,0.0,0.98976,50,1150,6844,772027,no_split,narrow,individual,1,0.4451611042022705
1,1.0,0.5295129516149548,0.3939881730743047,0.42477141305002725,0.4528860420116411,0.4813891969133488,0.5089176150557756,0.5402702312862865,0.5749107224457536,0.6189008184784742,0.6870610137412325,1.4844896458885684,0.9809729729729729,0.4876240680113512,0.0,0.98976,50,1150,6844,772027,no_split,narrow,individual,1,0.4451611042022705
0,0.0,0.4344053347527275,0.34284591517605795,0.35739843665835497,0.3710587834745969,0.38619007499109126,0.40262603584029244,0.422745923922051,0.45092311923547285,0.4901715098512332,0.5655905204461823,1.210513855049048,0.9873224043715847,0.4603023946535629,0.0,0.9688283378746594,50,1150,7624,772027,no_split,narrow,individual,1,0.4441192150115967
1,1.0,0.4860587096636328,0.361198396312645,0.3861715098512332,0.4094124674388712,0.4325305216385847,0.458452285799008,0.48827818833749415,0.5230794306465478,0.5689683928873508,0.64504486207556,1.3928128829897855,0.9504347826086956,0.4603023946535629,0.0,0.9688283378746594,50,1150,7624,772027,no_split,narrow,individual,1,0.4441192150115967
0,0.0,0.3961967612774328,0.3283250365683444,0.3400445408882328,0.3509477679009325,0.3617670102551381,0.37332567076588236,0.3881877484581688,0.4076410436851682,0.43597181245216243,0.4871843261653907,1.1173256707658825,0.9928342245989304,0.4253426712758969,0.0,0.9723759791122716,50,1150,7756,772027,no_split,narrow,individual,1,0.4459266662597656
1,1.0,0.4531502486723908,0.3424311449429003,0.3651537492092831,0.3878916698740994,0.4118771916058914,0.4342718449739425,0.45989942614510043,0.4895806335149759,0.5283205971855786,0.5851860519208565,1.122222972588625,0.9528571428571428,0.4253426712758969,0.0,0.9723759791122716,50,1150,7756,772027,no_split,narrow,individual,1,0.4459266662597656
0,0.0,0.4281970749304465,0.3175643044416556,0.33973931096422755,0.3586403218858961,0.3796062066083901,0.40021103288852805,0.4246539833357253,0.45602642931360277,0.49812028192378904,0.5735998286496746,1.3841281415752216,0.9975,0.44356357559889575,0.0,0.9959358288770054,50,1150,7768,772027,no_split,narrow,individual,1,0.446134090423584
1,1.0,0.45977438949088606,0.32772771132735007,0.35449170097379157,0.37831885908255075,0.40239989870174436,0.4281954412046193,0.4605621961579752,0.4981214943388618,0.5495645386953979,0.6320745592143148,1.4064028595824976,0.9942857142857143,0.44356357559889575,0.0,0.9959358288770054,50,1150,7768,772027,no_split,narrow,individual,1,0.446134090423584
0,0.0,0.397329110260522,0.30360698433591715,0.32065823586347103,0.3354053713258365,0.3508511060688047,0.36763974155594287,0.38782137753928214,0.4125080839368361,0.4497463652092555,0.5240816352517593,1.2760548649064216,0.9886631016042781,0.42857201003626805,0.0,0.9726881720430107,50,1150,7807,772027,no_split,narrow,individual,1,0.4449591636657715
1,1.0,0.4601526708906709,0.3187714428082604,0.3458511060688047,0.3718284020491111,0.40002375986458666,0.4293366014793874,0.4630212327076802,0.5060578463263977,0.5604565196385242,0.6427404751128225,1.3269873391936147,0.9565405405405405,0.42857201003626805,0.0,0.9726881720430107,50,1150,7807,772027,no_split,narrow,individual,1,0.4449591636657715
0,0.0,0.39010195404317166,0.3175394043895422,0.32944946242347595,0.3406162548043949,0.3520496353227643,0.3652550041130713,0.3814739025612043,0.4031236685184604,0.43478421051969074,0.4919309907064568,1.2319846457038903,0.9918681318681318,0.4116379234200552,0.0,0.9759556786703601,50,1150,7813,772027,no_split,narrow,individual,1,0.4423813819885254
1,1.0,0.4335348308311881,0.33425331878991626,0.35390759726486704,0.37148896261208225,0.3899981213880342,0.41136130817524125,0.4354655965266874,0.46362075716753304,0.5006162548043949,0.5625886229724824,1.1436312626815222,0.9597765363128492,0.4116379234200552,0.0,0.9759556786703601,50,1150,7813,772027,no_split,narrow,individual,1,0.4423813819885254
0,0.0,0.4015170137120144,0.33178146424156246,0.34662014929205753,0.3585668554812578,0.37104547559381984,0.38460503211326863,0.3993973389449047,0.418794019187753,0.44469658394371786,0.4913931713555133,0.9946919766090407,1.0,0.4281177194208831,0.0,0.9997524752475248,50,1150,7828,772027,no_split,narrow,individual,1,0.4447956085205078
1,1.0,0.4512701855008245,0.359847885467206,0.38138791722433985,0.3997576736843524,0.4178213169769486,0.4366203740679239,0.4565406803088995,0.48036836925848553,0.5123137436154714,0.5615522186397004,1.0388233140621979,0.999537037037037,0.4281177194208831,0.0,0.9997524752475248,50,1150,7828,772027,no_split,narrow,individual,1,0.4447956085205078
0,0.0,0.5315832156037025,0.38681659989143835,0.41080825652103625,0.43513529124591327,0.459891140111475,0.4879899958771707,0.5215516377917652,0.5640371158309202,0.6250890147093862,0.7347729103906457,1.4839059607702,0.992910052910053,0.5569011705686342,0.0,0.9883720930232558,50,1150,7840,772027,no_split,narrow,individual,1,0.449965238571167
1,1.0,0.5810683093987964,0.41026725659245783,0.44375839641844284,0.4765435647229859,0.508899459060808,0.544496189859978,0.5851095491979375,0.6335595518753937,0.6958732919492311,0.8004319078456809,1.4928897064967197,0.984040404040404,0.5569011705686342,0.0,0.9883720930232558,50,1150,7840,772027,no_split,narrow,individual,1,0.449965238571167
0,0.0,0.46913375258194334,0.38654484964046054,0.40291776665678364,0.41720079805599175,0.43211891482131143,0.44797426801934603,0.4664647985782711,0.490386410249581,0.5242181517431757,0.5804309786194252,1.1249301893992114,1.0,0.4938581836930544,0.0,0.99952,50,1150,7924,772027,no_split,narrow,individual,1,0.44503307342529297
1,1.0,0.5166807354879263,0.4178320939480211,0.4401094905888346,0.4597162490571777,0.4792419718313901,0.500200379746524,0.5216858941251661,0.5479315104036012,0.5820310515560895,0.6375872278011013,1.0951094905888346,0.9990769230769231,0.4938581836930544,0.0,0.99952,50,1150,7924,772027,no_split,narrow,individual,1,0.44503307342529297
0,0.0,0.45740299198736273,0.3509353963762342,0.3723091292863552,0.3912320515247455,0.4107832982356766,0.43160903711671017,0.4566791470608385,0.48719929627196434,0.5287317521968977,0.5968615063590472,1.1376563279838183,0.9993684210526316,0.4710394983164766,0.0,0.9991392405063291,50,1150,7939,772027,no_split,narrow,individual,1,0.44627928733825684
1,1.0,0.4836782114995579,0.37885489566214486,0.4017178711011233,0.42122511282013175,0.44092900762023973,0.462380827913774,0.4861486838409481,0.5144522524613453,0.5548571011757696,0.6164735051178661,1.4260996492347693,0.9989268292682927,0.4710394983164766,0.0,0.9991392405063291,50,1150,7939,772027,no_split,narrow,individual,1,0.44627928733825684
0,0.0,0.4404676115878949,0.3564580757795595,0.37049551578706263,0.3840767941123861,0.3975852997613697,0.41360631836367107,0.4319075481276682,0.4569998977577028,0.49530916968125394,0.559991320187502,1.3345852997613696,0.9778181818181818,0.4551976341867649,0.0,0.9597175141242937,50,1150,8026,772027,no_split,narrow,individual,1,0.4435288906097412
1,1.0,0.46805717772546107,0.36619960420875397,0.38514668366512,0.4030767941123861,0.422251034894212,0.44191374921909576,0.46561873456676134,0.4965657354486748,0.5355990188349524,0.605811722445319,1.3931818718761353,0.9439153439153439,0.4551976341867649,0.0,0.9597175141242937,50,1150,8026,772027,no_split,narrow,individual,1,0.4435288906097412
0,0.0,0.4403563706553728,0.3259964053345826,0.3435441002268557,0.35999380967767913,0.37897272068795373,0.40154951837122754,0.4285492597881357,0.4663463130796165,0.5162372263195664,0.6060235661212247,1.3004626097008622,0.9601069518716577,0.4539582913937802,0.0,0.9436712328767123,50,1150,8311,772027,no_split,narrow,individual,1,0.4450714588165283
1,1.0,0.46824794969761274,0.34048373321271697,0.3645451720903657,0.3878034017605994,0.4093639832202873,0.4354692473175429,0.46392960722009635,0.5010867602484209,0.5524890607326914,0.6341038384425225,1.3685901351000296,0.9264044943820224,0.4539582913937802,0.0,0.9436712328767123,50,1150,8311,772027,no_split,narrow,individual,1,0.4450714588165283
0,0.0,0.3828485184786003,0.3057012142934601,0.31997232348829197,0.3324619517963477,0.34476552978933495,0.35837169672753966,0.374749563856243,0.3960289024670515,0.42763587127621805,0.486679438832237,1.2109560932172962,0.9976165803108809,0.41985866212407824,0.0,0.9865040650406504,50,1150,8446,772027,no_split,narrow,individual,1,0.4448122978210449
1,1.0,0.460443649189858,0.3279534048490455,0.3584075699027838,0.38497232348829197,0.41143872506196494,0.4393658430839634,0.47005741258301287,0.5063635016265329,0.5484170883871844,0.6165640158023884,1.3751099650919258,0.9743181818181819,0.41985866212407824,0.0,0.9865040650406504,50,1150,8446,772027,no_split,narrow,individual,1,0.4448122978210449
0,0.0,0.4795488726955733,0.3889412829254837,0.40593777937614606,0.42007984474279453,0.4353557240801993,0.45339018818418325,0.47329856953493826,0.4984632019698668,0.5377172145566694,0.6063181622135481,1.2831717975804584,0.9944723618090452,0.4956816208519395,0.0,0.9895584415584415,50,1150,8521,772027,no_split,narrow,individual,1,0.4461855888366699
1,1.0,0.5129419266751486,0.40316976554718426,0.4248423625744163,0.44509964780703154,0.46636852337132195,0.4881298060411393,0.5128600428918216,0.5439202616294577,0.5868475737608394,0.6554169349604875,1.3178311993423557,0.9843010752688172,0.4956816208519395,0.0,0.9895584415584415,50,1150,8521,772027,no_split,narrow,individual,1,0.4461855888366699
0,0.0,0.5529987526597681,0.41208004112780555,0.43808739762727883,0.46295096232856586,0.48833703629813047,0.5174290136846929,0.5499168341601683,0.5913171961605332,0.6480345989856461,0.7463857320078842,1.416048531199956,0.9978142076502732,0.5662515949726996,0.0,0.9967335243553008,50,1150,8704,772027,no_split,narrow,individual,1,0.4466423988342285
1,1.0,0.5808616560767145,0.4329907755900995,0.46466780758542403,0.49136850645828606,0.5186960210768282,0.5461069820686543,0.5807513242653203,0.620539738982815,0.6790691954375105,0.7760900856153716,1.429016566610601,0.9955421686746988,0.5662515949726996,0.0,0.9967335243553008,50,1150,8704,772027,no_split,narrow,individual,1,0.4466423988342285
0,0.0,0.4301190885030568,0.3386112214442072,0.35895135302256737,0.3756723647832816,0.3922480217184218,0.40990954007166697,0.4295241768274767,0.45323036585015203,0.48619078399541965,0.5449496540145318,1.3530579653343393,1.0,0.4559709795334866,0.0,0.9998969072164948,50,1150,8755,772027,no_split,narrow,individual,1,0.4486093521118164
1,1.0,0.4855364018721549,0.3610258858559438,0.39130736935439353,0.4172965484061829,0.44359860364839854,0.46829175453827354,0.4949513530225674,0.5274127252910168,0.567082857771305,0.6346130638514779,1.1261713419613912,0.9997790055248619,0.4559709795334866,0.0,0.9998969072164948,50,1150,8755,772027,no_split,narrow,individual,1,0.4486093521118164
0,0.0,0.45046321215412405,0.3444038082360964,0.3614482721642019,0.3773388824398406,0.39453600698308866,0.41488802481685305,0.43843760735005743,0.46928101105507264,0.5171980881004135,0.6033513668143567,1.4619072189088462,0.9959615384615385,0.47217299676950863,0.0,0.9906,50,1150,8785,772027,no_split,narrow,individual,1,0.446063756942749
1,1.0,0.495691930102842,0.3703453232642998,0.39683585836221325,0.4209285598438649,0.4444120140664666,0.47078753413659086,0.4993274151824867,0.5325810870495752,0.5791148181857034,0.6525542400364255,1.3935799875913126,0.9847916666666666,0.47217299676950863,0.0,0.9906,50,1150,8785,772027,no_split,narrow,individual,1,0.446063756942749
0,0.0,0.39482048840547823,0.3125303503661097,0.3258403571823138,0.3381166061005403,0.3505295013477387,0.36533970033228136,0.3825190374666111,0.40471702713033825,0.4394729512585616,0.508076113785529,1.2261955862382619,0.9877659574468085,0.4268062407437159,0.0,0.9629305912596401,50,1150,8788,772027,no_split,narrow,individual,1,0.4476757049560547
1,1.0,0.4567232628312219,0.3280620710437001,0.35370734917258084,0.381845864731847,0.4076088475608982,0.434195586238262,0.4640812468243703,0.49696988043257107,0.5419233170211275,0.6111234497818654,1.313449955144017,0.9397014925373134,0.4268062407437159,0.0,0.9629305912596401,50,1150,8788,772027,no_split,narrow,individual,1,0.4476757049560547
0,0.0,0.4261358142398578,0.37120776000695604,0.3806825199395948,0.38936110314168093,0.39835468635959426,0.4082396587260636,0.42105167130177623,0.43631609479668565,0.4588480237691351,0.5027430567141074,1.0258364155471584,0.9965555555555555,0.44909335340197076,0.0,0.9853551912568306,50,1150,161753,772027,no_split,narrow,individual,1,0.44948625564575195
1,1.0,0.47131032678466067,0.3904493897722015,0.4078645663040392,0.4232324787210729,0.43934506118646427,0.45573068928901594,0.47421612037179545,0.4973730659390172,0.5262795657204442,0.5732115042592794,1.0738868979233476,0.974516129032258,0.44909335340197076,0.0,0.9853551912568306,50,1150,161753,772027,no_split,narrow,individual,1,0.44948625564575195
0,0.0,0.43862764207946636,0.3658261911371899,0.38016265716831127,0.3924309356081398,0.40527887970539034,0.41974743875250203,0.4356768484648063,0.45561884238430767,0.4827484509592102,0.5338785284100981,1.0867439816646316,1.0,0.46381450871688684,0.0,0.998031914893617,50,1150,337788,772027,no_split,narrow,individual,1,0.4466879367828369
1,1.0,0.4906620478798515,0.3813884199278585,0.4037416702242998,0.4246818379778824,0.44674471557473916,0.47173280623127734,0.4967328062312773,0.527021776988858,0.5666355375679605,0.6274454127517964,1.2437079694024433,0.995934065934066,0.46381450871688684,0.0,0.998031914893617,50,1150,337788,772027,no_split,narrow,individual,1,0.4466879367828369
