,congruency,mean_rt,qu10_rt,qu20_rt,qu30_rt,qu40_rt,qu50_rt,qu60_rt,qu70_rt,qu80_rt,qu90_rt,qu100_rt,mean_acc,mean_rt_overall,nonconvergent_trials,accuracy_overall,n_posterior_draws,condition,id,slurm_id,split,spacing,estimation_level,number_parts,time_post_sampling_sec
0,0.0,0.4166354510124662,0.34106667665474943,0.35782201149214726,0.37113445067155415,0.38462701218612766,0.39896288055750945,0.41593975141455025,0.43620795411991764,0.4660354994361212,0.516014047686574,1.0421701413857627,0.972,0.42044379499473267,0.0,0.9685714285714285,50,1152,1108,772022,no_split,wide,individual,1,0.7293264865875244
1,1.0,0.4242926532746828,0.34887399395397745,0.36682380099471157,0.38104562358792204,0.39402963595393864,0.4080044326835745,0.4239298535617392,0.44351136786002915,0.47263588762673836,0.5211384393450927,0.9501762623911164,0.9651063829787234,0.42044379499473267,0.0,0.9685714285714285,50,1152,1108,772022,no_split,wide,individual,1,0.7293264865875244
0,0.0,0.4399029356317051,0.3550419157101814,0.3775503795384714,0.3945265786736114,0.409602893630509,0.42591662681051945,0.4436896495193089,0.4657311739187928,0.49472895423959495,0.538817279645492,1.2043688149806833,0.971005291005291,0.44658739655097635,0.0,0.9583157894736842,50,1152,1507,772022,no_split,wide,individual,1,0.7407622337341309
1,1.0,0.45320186311507205,0.35896939018613605,0.3825692826394581,0.40049941621709195,0.4175352568634772,0.43518329560255126,0.45530711637397786,0.48024503944335395,0.5150665490427004,0.5715630792717,1.1103848782418382,0.945759162303665,0.44658739655097635,0.0,0.9583157894736842,50,1152,1507,772022,no_split,wide,individual,1,0.7407622337341309
0,0.0,0.447521337128836,0.3556846139228685,0.37961189355350683,0.39727568333059937,0.4136015345864551,0.4310554755558064,0.4495898067301785,0.47287796372754387,0.5049561416135386,0.5567167663359709,1.2573745627227222,0.9893684210526316,0.45618894310232794,0.0,0.9836220472440945,50,1152,1538,772022,no_split,wide,individual,1,0.729041337966919
1,1.0,0.46481116893983315,0.3616436003322037,0.38749934250746265,0.4066903768778404,0.4256493664231911,0.44578638154888606,0.4685398527072275,0.49614481357676343,0.5334657971307166,0.5923348202586045,1.2208903288040365,0.9779057591623037,0.45618894310232794,0.0,0.9836220472440945,50,1152,1538,772022,no_split,wide,individual,1,0.729041337966919
0,0.0,0.4652986969233076,0.37432164029246606,0.3965247453149829,0.41306583354859855,0.42984222275689404,0.4474696486944093,0.4669877164285038,0.4909263231136905,0.524961287224654,0.577257852818356,1.124883936065932,0.9844565217391305,0.4664126084082851,0.0,0.9837837837837838,50,1152,1582,772022,no_split,wide,individual,1,0.7303009033203125
1,1.0,0.4675145423504133,0.3820386161332081,0.4038058916281882,0.4209466854711204,0.4364086556340584,0.4524853891505849,0.47038336927360913,0.49221143788572874,0.5211449282842519,0.5713451446329575,1.1248091057249865,0.9831182795698925,0.4664126084082851,0.0,0.9837837837837838,50,1152,1582,772022,no_split,wide,individual,1,0.7303009033203125
0,0.0,0.43304629797566185,0.35518683578813376,0.37351318234238634,0.3883505806474269,0.402504882359618,0.4171523716617943,0.43431857398229406,0.4543334953262302,0.4819932992131261,0.5309437791002912,1.1162716604126663,0.974869109947644,0.44511264211939927,0.0,0.9586945169712794,50,1152,1583,772022,no_split,wide,individual,1,0.7300379276275635
1,1.0,0.4571161407207215,0.36968127018267855,0.3917022386827267,0.4092519013397781,0.4250413148343751,0.4420266210475165,0.4607566536742528,0.48399079909133436,0.514513967634232,0.5633098746383332,1.0252964127936917,0.9426041666666667,0.44511264211939927,0.0,0.9586945169712794,50,1152,1583,772022,no_split,wide,individual,1,0.7300379276275635
0,0.0,0.5599630506361215,0.4024290850705428,0.43923447959020023,0.4672746542660712,0.4947150179174182,0.5241095714815984,0.5590982217145218,0.603927605040828,0.6620410525429368,0.7591216099412953,1.5376155332864707,0.9648587570621469,0.5662382069415153,0.0,0.9622527472527472,50,1152,1597,772022,no_split,wide,individual,1,0.7280757427215576
1,1.0,0.5721777933910057,0.4100667335981343,0.446041547226334,0.47487635929262245,0.5056075356416088,0.5359452996856944,0.5711051369757103,0.6152242429251685,0.675603816133959,0.7832633542689361,1.5818800102962132,0.9597860962566845,0.5662382069415153,0.0,0.9622527472527472,50,1152,1597,772022,no_split,wide,individual,1,0.7280757427215576
0,0.0,0.4045896757214275,0.33483635106063697,0.35440580678963013,0.36901539528201205,0.3819790079010445,0.3953361819877791,0.410130649926522,0.42731410661553826,0.4484896009921086,0.4837396545947196,0.9844719669354565,0.994421052631579,0.4134828684510827,0.0,0.9886015831134565,50,1152,1601,772022,no_split,wide,individual,1,0.7327189445495605
1,1.0,0.4224231151105244,0.34065131866545634,0.36221888733513424,0.378869614330943,0.3935316619270297,0.4090188303556266,0.4268690678199287,0.4478292639458949,0.4756879673578873,0.5202356478566039,0.829439662602528,0.9827513227513227,0.4134828684510827,0.0,0.9886015831134565,50,1152,1601,772022,no_split,wide,individual,1,0.7327189445495605
0,0.0,0.478644125928713,0.34899601422070636,0.3764854868705641,0.39967081356500506,0.4223064765700579,0.44906042998967255,0.4758909246090399,0.5098558205201681,0.5594244091009118,0.6510010849044043,1.4541309050173765,0.9749473684210527,0.48434493417872987,0.0,0.9706315789473684,50,1152,1614,772022,no_split,wide,individual,1,0.732252836227417
1,1.0,0.4900457424287466,0.3565134897072365,0.38626640256562456,0.41066619731091736,0.4353510984192289,0.46068637319908523,0.48963536752341996,0.5256581698688224,0.5776840661935525,0.6643000070787574,1.4374095397697702,0.9663157894736842,0.48434493417872987,0.0,0.9706315789473684,50,1152,1614,772022,no_split,wide,individual,1,0.732252836227417
0,0.0,0.42529093557826353,0.37363029824841965,0.38821141760587763,0.3997137577560389,0.40979615636367256,0.4196091890777157,0.4298461137200819,0.44221216746644665,0.45843197104246625,0.4838070668763157,0.7721086229113536,0.9973684210526316,0.430403096148873,0.0,0.9959580052493439,50,1152,161753,772022,no_split,wide,individual,1,0.7273380756378174
1,1.0,0.43548849148089286,0.3787414985766928,0.3930988424234854,0.40457260003968326,0.4156146392352626,0.42685738702586484,0.4395092430648356,0.4546024629634258,0.473317354391928,0.5031015607433509,0.7335770206141197,0.9945549738219895,0.430403096148873,0.0,0.9959580052493439,50,1152,161753,772022,no_split,wide,individual,1,0.7273380756378174
0,0.0,0.4670418369654734,0.37018550268489525,0.3922486699362763,0.40959779656275946,0.4268960121036605,0.445656707200626,0.46664943707643386,0.49309781950405196,0.5294541971552613,0.5939437509185157,1.1518650795255525,0.9819148936170212,0.47018907847137414,0.0,0.9787335092348285,50,1152,1638,772022,no_split,wide,individual,1,0.7341938018798828
1,1.0,0.4732868868646169,0.37956480107295915,0.40187080750713505,0.41911883292961644,0.43593468630924964,0.45409038519486394,0.474611495859225,0.49954663956676104,0.5347803390509333,0.5934269550221576,1.2006923375851921,0.9756020942408377,0.47018907847137414,0.0,0.9787335092348285,50,1152,1638,772022,no_split,wide,individual,1,0.7341938018798828
0,0.0,0.3939828421873692,0.325579616226677,0.3444422940704008,0.3591100917598565,0.3713884093533691,0.3836565350537896,0.39731161880719207,0.414163735656779,0.4357615303385128,0.4721125144202742,0.9484506673811354,0.9801052631578947,0.40002137352215644,0.0,0.9721372031662269,50,1152,1657,772022,no_split,wide,individual,1,0.7230615615844727
1,1.0,0.406091854758186,0.3290025307675307,0.34914361715065373,0.36402710489409784,0.378634564100897,0.39418808306636305,0.41080151757139427,0.4302492306561885,0.4563242605866225,0.49839029737539375,0.848611139835482,0.9641269841269842,0.40002137352215644,0.0,0.9721372031662269,50,1152,1657,772022,no_split,wide,individual,1,0.7230615615844727
0,0.0,0.4613735451255041,0.37359677096451027,0.3930317714636562,0.409604594054524,0.4251594648378709,0.44134858591262227,0.46018582675761205,0.48443294156425126,0.5170481119638317,0.5713549234984567,1.1817224340692225,0.9915957446808511,0.46901977333554234,0.0,0.9867724867724867,50,1152,1663,772022,no_split,wide,individual,1,0.7279882431030273
1,1.0,0.4765855149328434,0.38317538673136264,0.40445558535258813,0.42158940163766406,0.43899014923896484,0.45714153613954794,0.4780892354103823,0.5040498939973677,0.5375883436179081,0.5970915817578822,1.0928506781537803,0.982,0.46901977333554234,0.0,0.9867724867724867,50,1152,1663,772022,no_split,wide,individual,1,0.7279882431030273
0,0.0,0.5130225024727693,0.3992325010015194,0.42742383846470516,0.44902088201404605,0.469955249571083,0.4903552527217083,0.5149930121574631,0.5448748861076445,0.5831197526450671,0.653548140474377,1.258422156594055,0.9743010752688172,0.519368534350157,0.0,0.9671849865951743,50,1152,1761,772022,no_split,wide,individual,1,0.7321369647979736
1,1.0,0.5256806302282003,0.40660965814744765,0.4346339531841956,0.4586275601053191,0.4799037131225405,0.5025056810916608,0.5285546446948673,0.5594934321830897,0.6032163522498587,0.6742934280702548,1.3032601092529952,0.9601069518716577,0.519368534350157,0.0,0.9671849865951743,50,1152,1761,772022,no_split,wide,individual,1,0.7321369647979736
0,0.0,0.4463372409984035,0.34261044705923926,0.3704276279889114,0.3913703889188857,0.41089951747805936,0.42894266041815415,0.44990983019511155,0.47602167527229367,0.5106997176880873,0.5707071403384634,1.254576833576626,0.9372774869109948,0.4471789395310872,0.0,0.9323560209424083,50,1152,1768,772022,no_split,wide,individual,1,0.730349063873291
1,1.0,0.44802063806377085,0.34479787658340805,0.37027642297516006,0.39116975682391253,0.4113819735032772,0.43093271372219,0.4538510122352307,0.4803600312658148,0.5152181238762841,0.5710707791837754,1.175519924843163,0.927434554973822,0.4471789395310872,0.0,0.9323560209424083,50,1152,1768,772022,no_split,wide,individual,1,0.730349063873291
0,0.0,0.372365814767345,0.29939766666086054,0.3196523239360978,0.33483381916378796,0.34906946453922266,0.36291981144074204,0.3783433088623791,0.3956370484642604,0.41883189667900134,0.457500856278374,0.7819414900210064,0.9602127659574468,0.37579420043713613,0.0,0.9538297872340425,50,1152,1813,772022,no_split,wide,individual,1,0.7311897277832031
1,1.0,0.37922258610692716,0.3024788237161723,0.3232071671251987,0.33891074145237116,0.35324227327090657,0.3678973643679014,0.38353909875551784,0.4021280726788566,0.42800392056101094,0.46961232296013417,0.886373910702641,0.9474468085106383,0.37579420043713613,0.0,0.9538297872340425,50,1152,1813,772022,no_split,wide,individual,1,0.7311897277832031
0,0.0,0.38917593552060264,0.3143529124084883,0.3326437717608721,0.3471670518513224,0.3602104103954033,0.37434662510523053,0.3902577078941985,0.40940724024652675,0.4353312515049842,0.4807106591641056,1.0770199862612817,0.9869473684210527,0.39240732734531397,0.0,0.9851443569553806,50,1152,1821,772022,no_split,wide,individual,1,0.7366816997528076
1,1.0,0.3956218008882205,0.31782248742727437,0.33621130672940264,0.350888374524351,0.36520996418148366,0.37983169374197806,0.3958709968349597,0.41563760116872467,0.44572350444679915,0.49507403411066814,1.0444001677964152,0.9833507853403142,0.39240732734531397,0.0,0.9851443569553806,50,1152,1821,772022,no_split,wide,individual,1,0.7366816997528076
0,0.0,0.4351274968078704,0.3512056335061536,0.37337318515159357,0.3903896647027084,0.40588711765420377,0.42063640910959144,0.43855134121683625,0.45943569775216114,0.4867468801781263,0.5355303241883963,1.0520130389909164,0.9922513089005236,0.43919879251647737,0.0,0.9902659574468086,50,1152,275,772022,no_split,wide,individual,1,0.7359015941619873
1,1.0,0.4434021302480662,0.35398793122092714,0.3749226455217749,0.391388299676817,0.4083481131154525,0.42524415618749395,0.4442653498535946,0.46904310811443656,0.5012413924171109,0.5582001187044391,1.075294269563839,0.9882162162162162,0.43919879251647737,0.0,0.9902659574468086,50,1152,275,772022,no_split,wide,individual,1,0.7359015941619873
0,0.0,0.37581499179296474,0.3080227605421301,0.32202181845958405,0.33399947219107584,0.34592258823027683,0.3587998371729644,0.373712105046904,0.39263888363788907,0.4192357741016364,0.46382312427942546,1.0237699601340537,0.9862765957446809,0.3813507530828396,0.0,0.9804244031830238,50,1152,3286,772022,no_split,wide,individual,1,0.7386186122894287
1,1.0,0.3868572246304401,0.312053478053818,0.32678506342634506,0.3406344277880162,0.3546723086863941,0.3687730281335808,0.3866735399863605,0.40748209963947774,0.4373230111612955,0.48515277583871746,1.0869702417092821,0.9746031746031746,0.3813507530828396,0.0,0.9804244031830238,50,1152,3286,772022,no_split,wide,individual,1,0.7386186122894287
0,0.0,0.44935286777098876,0.35862570889641954,0.3819858722097145,0.39927903740890996,0.41618926652080285,0.4334901672112029,0.45269874094763346,0.4763517908239219,0.506802863866253,0.5594096443691972,1.0903780784301003,0.9870899470899471,0.4572207924130887,0.0,0.9821108179419525,50,1152,3292,772022,no_split,wide,individual,1,0.7385740280151367
1,1.0,0.4650473069254935,0.36873309531567633,0.39160315669539797,0.41022581951248155,0.42824265763816444,0.44682733807881947,0.4671340376367021,0.4931477221400199,0.5282328222553868,0.5875478160465397,1.1178843945718244,0.9771578947368421,0.4572207924130887,0.0,0.9821108179419525,50,1152,3292,772022,no_split,wide,individual,1,0.7385740280151367
0,0.0,0.44541274005270076,0.36581286598853135,0.3879116705109944,0.40397602333709526,0.41965701912884623,0.4344726179334307,0.4512387157130595,0.47041706730106975,0.49563288007205997,0.537812163894729,0.9236718994071877,0.9911578947368421,0.4495942050603043,0.0,0.9888188976377953,50,1152,337788,772022,no_split,wide,individual,1,0.7441251277923584
1,1.0,0.45375377758095686,0.36971562111985873,0.3926217541510601,0.4103185917584285,0.4254617488390469,0.4402117975315153,0.45718221447349555,0.4786552211470019,0.5063345531639002,0.5518893709788157,0.9787001512588164,0.9864921465968587,0.4495942050603043,0.0,0.9888188976377953,50,1152,337788,772022,no_split,wide,individual,1,0.7441251277923584
0,0.0,0.40507196687248004,0.3256719076279285,0.34396487010826804,0.3586827740169851,0.3726738370638172,0.38746244011792247,0.40460904569525286,0.4251761646238442,0.4540082787756511,0.5078388973590381,1.0433312364793816,0.9810695187165775,0.4132205772955419,0.0,0.9739247311827957,50,1152,3487,772022,no_split,wide,individual,1,0.748359203338623
1,1.0,0.4214572808042584,0.33121773899025175,0.3517086507415294,0.36885463446609573,0.3862689812944085,0.40440129837623806,0.42333635064862263,0.44544195182157337,0.47997143710280216,0.5336847647157013,0.9745046486937172,0.9667027027027028,0.4132205772955419,0.0,0.9739247311827957,50,1152,3487,772022,no_split,wide,individual,1,0.748359203338623
0,0.0,0.4063457074126381,0.34409995990902226,0.3613619835693679,0.37519887457762496,0.3868096093277391,0.3989382350237995,0.4121730927825717,0.4271265230040373,0.4460575407702188,0.4763836608277532,0.8116396721150588,0.9838743455497382,0.4101331530887974,0.0,0.9805820105820106,50,1152,3580,772022,no_split,wide,individual,1,0.7504115104675293
1,1.0,0.4140016136457302,0.3495033500357146,0.36795811340917844,0.38118421652574697,0.39365021757545005,0.406165314231767,0.4191952083477933,0.4348209916005051,0.4554906045429406,0.48952464592793205,0.8328468372512712,0.9772192513368984,0.4101331530887974,0.0,0.9805820105820106,50,1152,3580,772022,no_split,wide,individual,1,0.7504115104675293
0,0.0,0.4659382512348077,0.3699223844824283,0.3959037210832114,0.41592513923361907,0.4327675380964147,0.4508954845785067,0.470180727218966,0.49450558986114723,0.525474725004394,0.5790225506322457,1.176678772933443,0.963076923076923,0.47452808196730784,0.0,0.9476243093922652,50,1152,3625,772022,no_split,wide,individual,1,0.7492313385009766
1,1.0,0.4832133552635024,0.37764250570130964,0.40473906749745053,0.42606835799602055,0.4467752454699849,0.4666317807785667,0.48925663730904917,0.5150496165088599,0.5522919935540805,0.6107184666992407,1.271294488673535,0.932,0.47452808196730784,0.0,0.9476243093922652,50,1152,3625,772022,no_split,wide,individual,1,0.7492313385009766
0,0.0,0.5406389072080404,0.4325899313438016,0.4608220781526116,0.48247109401309146,0.5028924828426176,0.5240661086720116,0.5461472558934093,0.5739993306996046,0.6097755093186821,0.66929246543269,1.2322377178206338,0.9950785340314137,0.5480496400817281,0.0,0.9943307086614174,50,1152,3754,772022,no_split,wide,individual,1,0.7541027069091797
1,1.0,0.5554993768126456,0.44086391074058845,0.4701648980651407,0.4934321410058101,0.5155297267749201,0.5368511996065938,0.5614113493059197,0.5909841401479623,0.6297249162899023,0.6934795465749382,1.297889225539805,0.993578947368421,0.5480496400817281,0.0,0.9943307086614174,50,1152,3754,772022,no_split,wide,individual,1,0.7541027069091797
0,0.0,0.4120995104951557,0.33811056216364455,0.3575076016032028,0.37182890715905786,0.3857396795856629,0.39933265083226654,0.4144526158115193,0.43356415186601455,0.45923542718899407,0.500234661016578,0.9053434034860631,0.9756613756613757,0.4147277331268367,0.0,0.9726649076517151,50,1152,3910,772022,no_split,wide,individual,1,0.7532844543457031
1,1.0,0.41734212300782475,0.34282506402622814,0.36015990265255277,0.3740913351885714,0.38859610570706826,0.4029586753784604,0.41889109951927855,0.43880281700334567,0.46426123391818575,0.5108265644269857,0.9775435755601849,0.9696842105263158,0.4147277331268367,0.0,0.9726649076517151,50,1152,3910,772022,no_split,wide,individual,1,0.7532844543457031
0,0.0,0.4055254324229598,0.34106537282409904,0.3566313740632717,0.3686020773727695,0.37988635289804823,0.3925794731849206,0.4065841607703042,0.42328088429260463,0.4466532556748829,0.4873128892485939,0.9792655310566111,0.9757894736842105,0.4074694776553216,0.0,0.973245382585752,50,1152,4222,772022,no_split,wide,individual,1,0.7536163330078125
1,1.0,0.40942380884129376,0.3459798807194757,0.3615393665305458,0.37409783620921266,0.38580732961844216,0.39748957481883807,0.4110897949065236,0.4264613651772806,0.44902080143033796,0.4866706369945346,1.1712675391111866,0.9706878306878307,0.4074694776553216,0.0,0.973245382585752,50,1152,4222,772022,no_split,wide,individual,1,0.7536163330078125
0,0.0,0.4440557692632629,0.34012201633965145,0.3637905758996364,0.3839577328202442,0.40169305733658744,0.4197318171544203,0.4419279700158532,0.46850106631851246,0.5074992371447038,0.5790650556760009,1.2335313835733803,0.9515343915343916,0.4545641843955335,0.0,0.9295238095238095,50,1152,4264,772022,no_split,wide,individual,1,0.7454805374145508
1,1.0,0.465072599527804,0.3612037734636352,0.3871902134891497,0.4072284227354248,0.42628503368992143,0.44595349294083,0.4682015616392552,0.49425674779143824,0.5303724258742739,0.5921198069181328,1.270294494604029,0.9075132275132275,0.4545641843955335,0.0,0.9295238095238095,50,1152,4264,772022,no_split,wide,individual,1,0.7454805374145508
0,0.0,0.4264732962307674,0.36646418565206706,0.38162413050946925,0.3931313232598888,0.40472046746248463,0.41623720293710764,0.4284255581414173,0.4435598129679106,0.4644459916037282,0.5002618321846778,0.8843576063056138,0.9926595744680851,0.42943864171049356,0.0,0.98912,50,1152,5281,772022,no_split,wide,individual,1,0.7516317367553711
1,1.0,0.43241984465267824,0.37190669291617157,0.3873099017976606,0.39992750694890156,0.41194929856878276,0.4236807453418955,0.4360584042355123,0.4503237864887847,0.47113127075606065,0.5044333314907252,0.9087757685438083,0.9855614973262032,0.42943864171049356,0.0,0.98912,50,1152,5281,772022,no_split,wide,individual,1,0.7516317367553711
0,0.0,0.46340928656934394,0.3766061862261838,0.39604757509918953,0.4126282376809636,0.4284864100670183,0.4444564020484306,0.4637297915938263,0.4875167761477962,0.5207259500040787,0.5759111218029819,1.390416104901162,0.9961904761904762,0.46776777000043374,0.0,0.9954666666666667,50,1152,5332,772022,no_split,wide,individual,1,0.7680220603942871
1,1.0,0.4721965515513799,0.37922374981445645,0.4001513830144852,0.4182276750898089,0.4354716738282096,0.45255479016698796,0.4727766639814449,0.4984764847297946,0.5318283155559571,0.5889356729733387,1.1316224185604071,0.9947311827956989,0.46776777000043374,0.0,0.9954666666666667,50,1152,5332,772022,no_split,wide,individual,1,0.7680220603942871
0,0.0,0.444693876936957,0.3621868220556009,0.38261785644930973,0.3995084026264888,0.4150191248662764,0.43030223515337895,0.446626264459367,0.4679812459483471,0.4968164940062598,0.5443529372858877,1.1335652783234298,0.9718947368421053,0.4515172419835708,0.0,0.9646437994722955,50,1152,5575,772022,no_split,wide,individual,1,0.7505335807800293
1,1.0,0.4583767094907488,0.3702915656889156,0.392000841641431,0.4085832046342183,0.4250534814012648,0.4418075273793107,0.46087449782336165,0.4852982252682286,0.5170778246871123,0.5663406022918085,0.9929149650012836,0.9573544973544974,0.4515172419835708,0.0,0.9646437994722955,50,1152,5575,772022,no_split,wide,individual,1,0.7505335807800293
0,0.0,0.4440703344268962,0.3565835915705973,0.3774860246411815,0.3942637923274807,0.4105080784115873,0.42653929455958495,0.4443486164765752,0.46815120527512677,0.499513221467711,0.5532317972442219,1.1401260849701504,0.9605464480874317,0.44731059798501344,0.0,0.9547169811320755,50,1152,5731,772022,no_split,wide,individual,1,0.753342866897583
1,1.0,0.4504646843208404,0.3604994678841223,0.3828433262106417,0.3994955628937652,0.4160285600905047,0.4328632251528737,0.4516051241103101,0.4755793100253037,0.5098172804895904,0.5644263334774661,1.0350065194815397,0.9490425531914893,0.44731059798501344,0.0,0.9547169811320755,50,1152,5731,772022,no_split,wide,individual,1,0.753342866897583
0,0.0,0.42428148906858665,0.3487658104739476,0.37149396539015805,0.3873334189318371,0.4013987423830019,0.4171975413934398,0.4321498792192919,0.4490667141568575,0.47150094815462146,0.5075830688831858,0.9929533613125779,0.9893617021276596,0.4343006585100624,0.0,0.979946949602122,50,1152,5761,772022,no_split,wide,individual,1,0.7504227161407471
1,1.0,0.4442668164730118,0.363768168828634,0.38653818693359726,0.4046831695529423,0.42091610043969296,0.4367503881193143,0.45347741043042117,0.4725960457747937,0.4969443713367273,0.5341520051779913,0.9195989930526487,0.9705820105820105,0.4343006585100624,0.0,0.979946949602122,50,1152,5761,772022,no_split,wide,individual,1,0.7504227161407471
0,0.0,0.4167081943363364,0.3266071880457113,0.3473987831952987,0.36519838916678843,0.3818022302443977,0.3984695290171842,0.41870893723237296,0.4425692444176052,0.47453493608834085,0.529835229433551,1.079892483282761,0.9316666666666666,0.42045781276871336,0.0,0.9197916666666667,50,1152,5803,772022,no_split,wide,individual,1,0.8163301944732666
1,1.0,0.4242074312010903,0.33093680790060237,0.35362729254216263,0.37197589202883463,0.3888554973038392,0.40602839854057515,0.4259077481511541,0.4499487924957244,0.4833033255981317,0.538776804202658,1.182030063365214,0.9079166666666667,0.42045781276871336,0.0,0.9197916666666667,50,1152,5803,772022,no_split,wide,individual,1,0.8163301944732666
0,0.0,0.4970288580308218,0.38450659525861475,0.41491057685575927,0.43771687907838763,0.45865299948173727,0.4799758230184814,0.5035087262575749,0.5315689235459305,0.5683199853234363,0.6277968224249012,1.4083763027885203,0.9719791666666666,0.5028256033397109,0.0,0.9630890052356021,50,1152,5815,772022,no_split,wide,individual,1,0.7710554599761963
1,1.0,0.5086833670202726,0.38678315506809213,0.4207014551646157,0.4443035069065122,0.46540221909763313,0.4873714082195103,0.5129041521970512,0.5419814929045121,0.5844798508879749,0.6556587818596845,1.3538934092671993,0.9541052631578948,0.5028256033397109,0.0,0.9630890052356021,50,1152,5815,772022,no_split,wide,individual,1,0.7710554599761963
0,0.0,0.412635711044915,0.3511992716785882,0.3648374414342849,0.3759226624283043,0.38679995598118994,0.3986334014478534,0.41127787215509376,0.4272283630320191,0.4500330490020897,0.4929921841046043,0.9732530241405106,0.9962105263157894,0.42081459874823685,0.0,0.9915343915343915,50,1152,6055,772022,no_split,wide,individual,1,0.7537777423858643
1,1.0,0.429080495895211,0.35789537501413826,0.37417536840973276,0.3872763484382714,0.40014069747018477,0.4140121166927219,0.43053005019864715,0.4492357513847314,0.4757292499973003,0.5186883294648466,0.9871028529643409,0.9868085106382979,0.42081459874823685,0.0,0.9915343915343915,50,1152,6055,772022,no_split,wide,individual,1,0.7537777423858643
0,0.0,0.4587420480884926,0.35066627418867086,0.37496655672164203,0.39546514361354007,0.41428458528148016,0.4341867304764704,0.4577260020159767,0.48701632665235195,0.5277717858655162,0.5960986285663141,1.1719028091595391,0.9617297297297297,0.4629366827261856,0.0,0.9553351206434316,50,1152,6109,772022,no_split,wide,individual,1,0.7531936168670654
1,1.0,0.4670643817047665,0.3611001696524988,0.3857477040818934,0.405750505259787,0.4249964688652475,0.44615355956635555,0.46879237413191355,0.49612501043936336,0.5338529285935615,0.5987696266898879,1.3402815453406722,0.9490425531914893,0.4629366827261856,0.0,0.9553351206434316,50,1152,6109,772022,no_split,wide,individual,1,0.7531936168670654
0,0.0,0.38452752201093177,0.3266155300945483,0.3406994463167595,0.3523307705077262,0.36242515887340343,0.37393312797141365,0.3862852446161535,0.4009890364527156,0.4210747244218294,0.4537519357090163,0.928730171812386,0.9890052356020942,0.39633313153796373,0.0,0.9798955613577024,50,1152,6214,772022,no_split,wide,individual,1,0.7511806488037109
1,1.0,0.4080772535153758,0.3347413482465445,0.3514321720973924,0.36516255394741387,0.3790565045183286,0.39364066828980615,0.41043981897506454,0.43020505372277085,0.4570501337028927,0.5009610584606448,0.9238989178817583,0.9708333333333333,0.39633313153796373,0.0,0.9798955613577024,50,1152,6214,772022,no_split,wide,individual,1,0.7511806488037109
0,0.0,0.45411454217899605,0.35754753977588133,0.38494333142065995,0.40725751434010793,0.42561097135299547,0.44325197414586187,0.46316632814352166,0.48584352037070827,0.5150928349552372,0.5614556921162264,1.0088012615887434,0.9522751322751323,0.4548976032733424,0.0,0.9473544973544974,50,1152,6253,772022,no_split,wide,individual,1,0.7485506534576416
1,1.0,0.4556806643676887,0.3589569976041341,0.3863516072787618,0.40672529226058773,0.4260174133095622,0.44486173523660755,0.46476041350726544,0.4876380733297588,0.5178777802557365,0.565243084967261,1.0742359181994696,0.9424338624338624,0.4548976032733424,0.0,0.9473544973544974,50,1152,6253,772022,no_split,wide,individual,1,0.7485506534576416
0,0.0,0.4511345137516218,0.3716967565516205,0.3948728606427512,0.4124033894421183,0.42779191128509825,0.4423508018663431,0.45826841800722784,0.4766794732307912,0.5006922660864557,0.5410898003798098,0.9415711639566525,0.9834736842105263,0.4539413264299913,0.0,0.981732283464567,50,1152,6262,772022,no_split,wide,individual,1,0.7460839748382568
1,1.0,0.45673344375402386,0.37405029715313903,0.3973090058686897,0.4144822579453874,0.43005029450628063,0.4462273628753852,0.46279295664486714,0.48197384767655205,0.5089466397291439,0.5533786279898222,1.0328954165915751,0.98,0.4539413264299913,0.0,0.981732283464567,50,1152,6262,772022,no_split,wide,individual,1,0.7460839748382568
0,0.0,0.488807787898913,0.3955877348747233,0.41866451355274314,0.43654875375138846,0.4540312918945004,0.47090729273444487,0.48972364837168736,0.5150744189207774,0.548362002827258,0.6070837137396903,1.0744756506701416,0.996,0.5000518436450555,0.0,0.9922105263157894,50,1152,6361,772022,no_split,wide,individual,1,0.7419817447662354
1,1.0,0.511295899391198,0.41873294681939144,0.44216122109987627,0.4620376262684066,0.47913150238284963,0.4974154244056894,0.5156379296690181,0.5387250785128975,0.5701491209604791,0.6251718003689546,1.1482108339947632,0.988421052631579,0.5000518436450555,0.0,0.9922105263157894,50,1152,6361,772022,no_split,wide,individual,1,0.7419817447662354
0,0.0,0.4084382780603609,0.34249977337610416,0.36094327615156085,0.3740609480504705,0.38732002037265195,0.3992860386638163,0.4125869391821913,0.42874445711162634,0.4495140926830571,0.4848814695654592,0.7329371751274557,0.988,0.41202361164104756,0.0,0.9832717678100263,50,1152,6427,772022,no_split,wide,individual,1,0.7365739345550537
1,1.0,0.41562791524067966,0.34705919590882783,0.3656982041612379,0.3796739850354275,0.3927410652089365,0.40635004553896825,0.42119975568335394,0.43732519436394596,0.4594280645210936,0.49356169542284695,0.92457934885384,0.9785185185185186,0.41202361164104756,0.0,0.9832717678100263,50,1152,6427,772022,no_split,wide,individual,1,0.7365739345550537
0,0.0,0.45409747078206286,0.3758381626893252,0.3965108495284906,0.4128989865325829,0.42706305921370974,0.44166167400882345,0.4579811332593957,0.4777057346186546,0.5048005979040273,0.5478783187910596,0.9462139289222598,0.9745744680851064,0.4574312753211321,0.0,0.9737066666666667,50,1152,6583,772022,no_split,wide,individual,1,0.740837574005127
1,1.0,0.4607829076919611,0.3788671597418238,0.3993680433136843,0.41543270049510234,0.43074980414928454,0.4465978503428967,0.4633504602251823,0.4839096219759509,0.5147816888793901,0.560867807328953,0.9548827416605877,0.9728342245989304,0.4574312753211321,0.0,0.9737066666666667,50,1152,6583,772022,no_split,wide,individual,1,0.740837574005127
0,0.0,0.43665449618059343,0.35599800495517947,0.37884485771429866,0.3951901000075135,0.4102584535868582,0.42571439006596185,0.44279606075530814,0.4619243708365254,0.4877777816309818,0.5286997323998247,0.9210753211597572,0.9744973544973545,0.4434831485900146,0.0,0.9660427807486631,50,1152,6634,772022,no_split,wide,individual,1,0.7674422264099121
1,1.0,0.4504594475380179,0.3582161127179877,0.38224939360530774,0.4006101573666159,0.41783523846139337,0.4352175120242939,0.4531477194085505,0.4778233645104351,0.5093986888191484,0.5648496920954765,0.994965920572234,0.9574054054054054,0.4434831485900146,0.0,0.9660427807486631,50,1152,6634,772022,no_split,wide,individual,1,0.7674422264099121
0,0.0,0.44915151977385503,0.3728505086066728,0.39270386733144563,0.40801018591661536,0.42264978612777787,0.4370677994123886,0.4524197258101098,0.47162388183119003,0.4966038783694398,0.5401103061628373,1.0182030676881249,0.9838541666666667,0.4544388260231926,0.0,0.9792689295039164,50,1152,6844,772022,no_split,wide,individual,1,0.7339718341827393
1,1.0,0.459753814504202,0.3850505194082637,0.40604224532064953,0.42190352242246465,0.4367137186158391,0.4502235698885165,0.46632539467567546,0.4839422974035378,0.5074348893539878,0.5436151746848091,0.935536127982705,0.9746596858638743,0.4544388260231926,0.0,0.9792689295039164,50,1152,6844,772022,no_split,wide,individual,1,0.7339718341827393
0,0.0,0.43683593592898756,0.3463865226950531,0.3708391880375321,0.38853506366605073,0.40480731188083946,0.42138810143596805,0.43869927413887383,0.4604903004457388,0.4920734056541464,0.5447424405728452,1.1672803877601476,0.9811578947368421,0.4526034108173677,0.0,0.9543979057591623,50,1152,7624,772022,no_split,wide,individual,1,0.7307336330413818
1,1.0,0.4682066411756605,0.367445447598713,0.39522266156411445,0.416210688239877,0.43576124311716397,0.45524636148476727,0.4752353810409113,0.49998065384939744,0.5328021864344082,0.584611897243951,1.0098425017172559,0.9279166666666666,0.4526034108173677,0.0,0.9543979057591623,50,1152,7624,772022,no_split,wide,individual,1,0.7307336330413818
0,0.0,0.4094859096448841,0.3353409414735916,0.35560788094167056,0.3704500786017876,0.38417694322128904,0.39760552906019275,0.413250897391669,0.43157963887826356,0.45640451446465696,0.4952475207055183,0.9372371628449759,0.9682291666666667,0.4132013894584825,0.0,0.9637172774869109,50,1152,7756,772022,no_split,wide,individual,1,0.729562520980835
1,1.0,0.41695597958590835,0.33919993043497093,0.35831176778958357,0.37398000931613706,0.38748816615040343,0.40213379217940803,0.4185715654503022,0.4389381960009811,0.4656692627972017,0.5126163462702373,1.1751633138705306,0.9591578947368421,0.4132013894584825,0.0,0.9637172774869109,50,1152,7756,772022,no_split,wide,individual,1,0.729562520980835
0,0.0,0.41437182451561155,0.327629025351536,0.3517934185556488,0.3718232712841532,0.38898041605851025,0.4038330086293652,0.42130633115144434,0.4418253782754114,0.4671910735020835,0.5116114791512301,1.0453981515118826,0.9741489361702128,0.42347068732522003,0.0,0.9594101876675604,50,1152,7768,772022,no_split,wide,individual,1,0.7289783954620361
1,1.0,0.4327170992614709,0.33917226925643207,0.3650392843818072,0.3847214513554885,0.4022643738829376,0.4202644802201333,0.43990248948115773,0.46293797308283674,0.49341440100322,0.5431397892495958,0.9530500235277318,0.9444324324324325,0.42347068732522003,0.0,0.9594101876675604,50,1152,7768,772022,no_split,wide,individual,1,0.7289783954620361
0,0.0,0.4062680447420976,0.31722316609381374,0.34100281326417886,0.3578254939527573,0.3737364775369932,0.3904134282034216,0.40915446776319675,0.4310327513325547,0.4626807377690564,0.5135368202342164,1.0759449588859038,0.937696335078534,0.4081693732977784,0.0,0.9310994764397906,50,1152,7807,772022,no_split,wide,individual,1,0.7300629615783691
1,1.0,0.4100707018534592,0.3193249565597881,0.34266908712075084,0.3602913214957601,0.37640729137224843,0.39395938743174014,0.4124745775283851,0.4349418926954203,0.4675691283703282,0.5204738553215744,1.2328301577211085,0.9245026178010471,0.4081693732977784,0.0,0.9310994764397906,50,1152,7807,772022,no_split,wide,individual,1,0.7300629615783691
0,0.0,0.3927599049037508,0.3234463077187452,0.33824295519725817,0.3504913486295669,0.3624231373413404,0.3760644862470336,0.39099805368171875,0.41015359777811294,0.43688322009274766,0.4852773784018468,1.069905451390159,0.9770833333333333,0.3971871572583089,0.0,0.9718635170603674,50,1152,7813,772022,no_split,wide,individual,1,0.7274513244628906
1,1.0,0.4016846834597647,0.328400889668118,0.34431940171130465,0.3572815667906916,0.37021180846494645,0.3848248594063186,0.40107405110155897,0.42090718362794327,0.44959007789144456,0.49636687869033796,1.3241945215656596,0.9665608465608465,0.3971871572583089,0.0,0.9718635170603674,50,1152,7813,772022,no_split,wide,individual,1,0.7274513244628906
0,0.0,0.4108028830513112,0.34947692027124355,0.3668080723741568,0.3798142489489835,0.39168207982861986,0.40346451871644695,0.41554263013521686,0.4303762789288427,0.45007669574037934,0.4811794586922745,0.7735224032810598,0.9889005235602094,0.4135163023783241,0.0,0.9863874345549738,50,1152,7828,772022,no_split,wide,individual,1,0.7254254817962646
1,1.0,0.416229721705337,0.3507996656148189,0.3677961116081709,0.3816198427637429,0.39403626365074623,0.4060479480933752,0.419925138068967,0.43559167090529294,0.45613730139307285,0.4935386814573548,0.804775111332524,0.9838743455497382,0.4135163023783241,0.0,0.9863874345549738,50,1152,7828,772022,no_split,wide,individual,1,0.7254254817962646
0,0.0,0.549928907949963,0.40428759536946823,0.4313533901791704,0.45643393755232836,0.48067116813751726,0.5101051384598139,0.5436841584159791,0.5880133499398518,0.6461834321345296,0.7480316533680896,1.506915225237457,0.9753439153439153,0.5566239002666434,0.0,0.9705851063829787,50,1152,7840,772022,no_split,wide,individual,1,0.7299201488494873
1,1.0,0.5633904967792243,0.41481494795667045,0.4433327067592188,0.4685670165432252,0.49697219046273367,0.5267781794394777,0.5605327081393667,0.6059516474959561,0.6641062574297566,0.763199037541051,1.5455406482687204,0.9657754010695188,0.5566239002666434,0.0,0.9705851063829787,50,1152,7840,772022,no_split,wide,individual,1,0.7299201488494873
0,0.0,0.4542597043132023,0.37179891178428165,0.39172097433415903,0.4080244912483477,0.4243408409447748,0.4405688967009213,0.45740223209781417,0.4782772741471405,0.5070965697840747,0.5541382072611071,0.9634720763858188,0.9993717277486911,0.46085181961100186,0.0,0.9984293193717277,50,1152,7924,772022,no_split,wide,individual,1,0.7285962104797363
1,1.0,0.46744393490880143,0.3862149515924408,0.40709053163798553,0.42402756814118675,0.4395503764555551,0.45547481210886326,0.4722751986723713,0.4926674956253969,0.5199188260466292,0.5638674724809867,1.0006350978506537,0.9974869109947644,0.46085181961100186,0.0,0.9984293193717277,50,1152,7924,772022,no_split,wide,individual,1,0.7285962104797363
0,0.0,0.44466961954776146,0.3704351567535534,0.3913421894221897,0.40688503470314324,0.4209736199154394,0.4352698731338578,0.45055273118283107,0.4676121793624969,0.49134096098044333,0.5320040248877783,0.9387947666284402,0.9928042328042328,0.45285355724379267,0.0,0.9888063660477454,50,1152,7939,772022,no_split,wide,individual,1,0.7277727127075195
1,1.0,0.4610810265233134,0.3764326333014684,0.3995751441632338,0.41640668467355785,0.4319104436135544,0.44815685485282375,0.4655882580488511,0.48589390554624917,0.5148730681520844,0.5636434005842814,1.0362403283633423,0.9847872340425532,0.45285355724379267,0.0,0.9888063660477454,50,1152,7939,772022,no_split,wide,individual,1,0.7277727127075195
0,0.0,0.44855663721173744,0.34514328330801036,0.37096796852635733,0.38992444068900395,0.4089960091712853,0.4286656399117117,0.45032453446632403,0.47778402785640345,0.5141818416239803,0.5753537700753778,1.2900105868195653,0.952808988764045,0.45644977823806837,0.0,0.9370247933884297,50,1152,8026,772022,no_split,wide,individual,1,0.7273647785186768
1,1.0,0.46404425987421377,0.3559133203980143,0.38279991616825776,0.4045508566725939,0.4251418517939381,0.4462206850858149,0.46874960457131376,0.49628824302750574,0.5345384172213502,0.5950070552160136,1.3863779811883747,0.9218378378378378,0.45644977823806837,0.0,0.9370247933884297,50,1152,8026,772022,no_split,wide,individual,1,0.7273647785186768
0,0.0,0.47119207730319296,0.36804140009337033,0.3903000680258783,0.4096398143837065,0.42817950624059997,0.4477665377817011,0.4704457721446311,0.49817860441427486,0.5378151914332682,0.6068368254651121,1.3368464411508632,0.9821052631578947,0.47220425340177874,0.0,0.9801578947368421,50,1152,808,772022,no_split,wide,individual,1,0.7277529239654541
1,1.0,0.4732164295003646,0.37561748356829766,0.39759688816519306,0.41607794993332964,0.4337489975312705,0.45211062923956913,0.4732114561423928,0.49986588761044626,0.5359181841656132,0.5963492241312343,1.3489706336105327,0.9782105263157894,0.47220425340177874,0.0,0.9801578947368421,50,1152,808,772022,no_split,wide,individual,1,0.7277529239654541
0,0.0,0.4400505738634421,0.3423648113741116,0.3665706107356381,0.3858691212655906,0.40345608902566804,0.42211329043646195,0.4434813187884724,0.4682340226141497,0.5022300943146698,0.5565376795593913,1.1347013196762206,0.9409424083769633,0.44423415369617175,0.0,0.9315926892950391,50,1152,8311,772022,no_split,wide,individual,1,0.7303152084350586
1,1.0,0.44839594405060607,0.3455535453608746,0.368811977475367,0.38904395675568015,0.4078834101265107,0.4273614872531057,0.4486458357235629,0.4766756285746197,0.5141578660861892,0.581982806852236,1.1258679071506148,0.9222916666666666,0.44423415369617175,0.0,0.9315926892950391,50,1152,8311,772022,no_split,wide,individual,1,0.7303152084350586
0,0.0,0.45011847768616603,0.3719006162858185,0.3909385160499014,0.4063380107451343,0.4206284732982255,0.435334262224657,0.45186159871807224,0.4714636865113845,0.4988090139163628,0.5472699057794052,0.9479977422267135,0.9704166666666667,0.4550552785010827,0.0,0.9647619047619047,50,1152,833,772022,no_split,wide,individual,1,0.7322838306427002
1,1.0,0.46015133095519023,0.37877131061025443,0.3984891113952096,0.4142218938950626,0.4297237540443519,0.4453067281489262,0.46208713374187194,0.48469173445308034,0.5124239595578256,0.5614943315529762,0.9854664293636881,0.9589247311827958,0.4550552785010827,0.0,0.9647619047619047,50,1152,833,772022,no_split,wide,individual,1,0.7322838306427002
0,0.0,0.5623750355228074,0.3965897265310676,0.42916192318949814,0.45778912528861426,0.4852474548630612,0.5163798230230128,0.5521520253197842,0.6001663176582308,0.6710254142343868,0.7980035371345502,1.5583812344127375,0.9289130434782609,0.5700051131622444,0.0,0.9218918918918919,50,1152,837,772022,no_split,wide,individual,1,0.7283167839050293
1,1.0,0.5775531469560963,0.4050566204753204,0.44091667577829863,0.4721549110971683,0.5027740472291731,0.5354404381336115,0.5762815711939465,0.6243664627071139,0.6917462591877961,0.8030646329033352,1.5131652228865513,0.9149462365591398,0.5700051131622444,0.0,0.9218918918918919,50,1152,837,772022,no_split,wide,individual,1,0.7283167839050293
0,0.0,0.38691401574645284,0.3173379394326057,0.3373004987310403,0.3518080745782644,0.364960359230264,0.37865503398557965,0.3924219176867839,0.4095754303166603,0.43096295531605217,0.4665161586649468,0.9172784320058508,0.9849214659685864,0.3931476495448129,0.0,0.9776315789473684,50,1152,8446,772022,no_split,wide,individual,1,0.715559720993042
1,1.0,0.39944724772199164,0.3232048772992406,0.34483168205194265,0.36064541431500796,0.37470513080148554,0.38889335143028014,0.40468551456871665,0.4230585355023048,0.4477126039088976,0.48642599171523737,0.8998918448060429,0.9702645502645503,0.3931476495448129,0.0,0.9776315789473684,50,1152,8446,772022,no_split,wide,individual,1,0.715559720993042
0,0.0,0.41883650003261347,0.34260391343169144,0.36275116365635074,0.3784540421731538,0.39267385570895363,0.40657451000035905,0.4229078125690084,0.44219626604168144,0.4673595004722194,0.5105930473964588,1.1153633297759584,0.96994708994709,0.4233564104018006,0.0,0.9600531914893617,50,1152,845,772022,no_split,wide,individual,1,0.7135412693023682
1,1.0,0.4279246620583586,0.3448757650935173,0.36432574497819276,0.38108909136805075,0.3960760760285837,0.41157621818250867,0.4297157793736663,0.451259985164339,0.48059476377286187,0.5318009996792419,1.0216131547337892,0.9500534759358289,0.4233564104018006,0.0,0.9600531914893617,50,1152,845,772022,no_split,wide,individual,1,0.7135412693023682
0,0.0,0.48481660877864424,0.3904844013891736,0.4127480566359899,0.43179511151118866,0.4501185312884185,0.4682114246384532,0.4882023650998914,0.512248229689672,0.5463378229854039,0.6029090216003458,1.1478928824909505,0.9621989528795811,0.4865611442632177,0.0,0.9585263157894737,50,1152,8521,772022,no_split,wide,individual,1,0.7159397602081299
1,1.0,0.48832414044074973,0.3919902484403354,0.4162464067773088,0.4354022090734229,0.45361365763164774,0.4714468755091876,0.4911364412380423,0.5144200279024991,0.5475680238030557,0.6078215807517856,1.2040984653623434,0.9548148148148148,0.4865611442632177,0.0,0.9585263157894737,50,1152,8521,772022,no_split,wide,individual,1,0.7159397602081299
0,0.0,0.559748485391738,0.4251242014068298,0.45688259569666567,0.4825606732319296,0.5071721204805932,0.5326509740735967,0.5624746637780778,0.5974739867524019,0.6463808333121824,0.7294257005847766,1.5139684115352807,0.9867391304347826,0.5586370063406985,0.0,0.9867204301075269,50,1152,8704,772022,no_split,wide,individual,1,0.7151792049407959
1,1.0,0.5575491757801065,0.42607645962572877,0.4566908563693509,0.48074673876291324,0.5053151659207875,0.5301964561607244,0.5593582296604299,0.5948061831977235,0.6422184218871524,0.7254946877119604,1.4997220117044696,0.9867021276595744,0.5586370063406985,0.0,0.9867204301075269,50,1152,8704,772022,no_split,wide,individual,1,0.7151792049407959
0,0.0,0.4434474121334777,0.36112347744383755,0.3820348981263043,0.39886801100878383,0.41440097795029973,0.429781603569856,0.4470778346176053,0.46774289818422166,0.4955319751131863,0.5424389355969071,1.0491326731298596,0.9968478260869565,0.4482989719247396,0.0,0.9958904109589041,50,1152,8755,772022,no_split,wide,individual,1,0.7145965099334717
1,1.0,0.45323094430922684,0.36729566080525294,0.38739143070795434,0.4040412796377055,0.41961517789979136,0.43644421937168,0.454529902564364,0.4779497305601673,0.509381377282335,0.5605144302417692,1.0256334909262586,0.9949171270718232,0.4482989719247396,0.0,0.9958904109589041,50,1152,8755,772022,no_split,wide,individual,1,0.7145965099334717
0,0.0,0.44793797560083487,0.3597459026892114,0.38292983093519434,0.400987413007026,0.41639302443463083,0.4323931918013669,0.4510598449316448,0.4736572106268591,0.5047353373144423,0.5558399160483172,1.0293085050757267,0.9663541666666666,0.44911731462939863,0.0,0.9640104166666666,50,1152,8785,772022,no_split,wide,individual,1,0.7209775447845459
1,1.0,0.45029665365796234,0.3612131890767198,0.38274661698843426,0.4014561280252555,0.41737836276236207,0.4340560034659103,0.45390131155921454,0.4771595939426373,0.5075118972749876,0.5580371586223536,1.0696523888340326,0.9616666666666667,0.44911731462939863,0.0,0.9640104166666666,50,1152,8785,772022,no_split,wide,individual,1,0.7209775447845459
0,0.0,0.4089265720207804,0.32372104099953797,0.34690148133300813,0.36383131141810865,0.37921792945438515,0.39501805444929156,0.41206234119465474,0.4327043631729384,0.46017465582009937,0.5094301732363509,1.1222854689611936,0.9810582010582011,0.41817600396704113,0.0,0.9720424403183023,50,1152,8788,772022,no_split,wide,individual,1,0.7169747352600098
1,1.0,0.427474635019399,0.3326357450283057,0.35630533500555495,0.3748081635174163,0.39314562021465776,0.4113103772188096,0.43181996182773696,0.456930499926311,0.49160950525300995,0.5433481068546139,1.1048670352764447,0.9629787234042553,0.41817600396704113,0.0,0.9720424403183023,50,1152,8788,772022,no_split,wide,individual,1,0.7169747352600098
0,0.0,0.4628775707294618,0.35975271219444616,0.38123690511826586,0.39948359171322756,0.4169639253190833,0.43677371356515643,0.4591375712272615,0.4864766924416416,0.5255730938580617,0.5971211122253035,1.3031020444140644,0.9783068783068783,0.47379041452974996,0.0,0.9656382978723405,50,1152,916,772022,no_split,wide,individual,1,0.7167127132415771
1,1.0,0.48481997323699305,0.3626984547043538,0.3871748210385342,0.4076880084130838,0.43005967254462774,0.4549821716409852,0.4827816976642006,0.5183103402510159,0.5672674648732297,0.647442646864959,1.292471671634039,0.9528342245989305,0.47379041452974996,0.0,0.9656382978723405,50,1152,916,772022,no_split,wide,individual,1,0.7167127132415771
0,0.0,0.40741498152945665,0.3317568147919839,0.34861114116214653,0.3626793322077082,0.37685450622549843,0.39105671618315413,0.4069268256712479,0.4274973722847356,0.4559923187192735,0.5055851395728975,1.0343337907956005,0.9653684210526315,0.41386352092176,0.0,0.9565354330708662,50,1152,985,772022,no_split,wide,individual,1,0.7158706188201904
1,1.0,0.42027829832771624,0.3377575117882251,0.35767216713722233,0.37329920889194557,0.3887847507388655,0.4054688685804883,0.4228675238824271,0.4442648007694801,0.4732277850758806,0.5234236825763134,1.1401641221871686,0.9477486910994765,0.41386352092176,0.0,0.9565354330708662,50,1152,985,772022,no_split,wide,individual,1,0.7158706188201904
0,0.0,0.4377714085385609,0.3520377860486379,0.37412080289198624,0.3895800533152147,0.40587022904848424,0.4206612315425465,0.43827023192993697,0.4587001161788882,0.4894166343602726,0.5414166628570288,1.2279482010816782,0.9854634146341463,0.4539834307198562,0.0,0.9741206030150754,50,1152,275,772022,no_split,narrow,individual,1,0.7131402492523193
1,1.0,0.4712034542802994,0.3654310522856433,0.3893941997129099,0.4102668481702147,0.4304491560951211,0.4524960197044813,0.47546750842733404,0.5059478728289785,0.5440031409377801,0.603809480039171,1.200685244944426,0.9620725388601036,0.4539834307198562,0.0,0.9741206030150754,50,1152,275,772022,no_split,narrow,individual,1,0.7131402492523193
0,0.0,0.4644952473495797,0.3758431027341676,0.39682584455147485,0.415231678185593,0.43156764722510205,0.44862629155465644,0.46646463177734093,0.48865072383477853,0.520156605901701,0.573635211314064,1.1960806749380828,0.9852380952380952,0.4675169355567556,0.0,0.9823232323232324,50,1152,808,772022,no_split,narrow,individual,1,0.718219518661499
1,1.0,0.47092851901647026,0.38316516923539123,0.40508837808352977,0.4232441834232149,0.43891424569070875,0.45631616839500716,0.47504502950332583,0.4968456417469513,0.5271924945384645,0.578696254860715,1.068597919193936,0.9790322580645161,0.4675169355567556,0.0,0.9823232323232324,50,1152,808,772022,no_split,narrow,individual,1,0.718219518661499
0,0.0,0.45319831042829756,0.3778501446827581,0.39827267628408414,0.41400385985649235,0.4275586340330773,0.44156850105534046,0.45646359297763506,0.4753148238512217,0.500205659509122,0.5416246352047017,0.9376290799976308,0.972,0.4624087015564507,0.0,0.95536,50,1152,833,772022,no_split,narrow,individual,1,0.7196667194366455
1,1.0,0.4729348628457686,0.38628673830574567,0.4083492151887634,0.425523799570964,0.44129149213814856,0.4588691997667389,0.477632786834552,0.5008644034004905,0.5294334958001542,0.5794107886361064,1.0517446522166227,0.9363428571428571,0.4624087015564507,0.0,0.95536,50,1152,833,772022,no_split,narrow,individual,1,0.7196667194366455
0,0.0,0.5736659170553109,0.3847935973124339,0.42624827746325133,0.46063174709037014,0.4916880806843961,0.5268118027218016,0.5709612839052187,0.6246285270327142,0.6965570136547825,0.8192294504331975,1.5591314141529315,0.9384293193717278,0.5851126368907051,0.0,0.9295212765957447,50,1152,837,772022,no_split,narrow,individual,1,0.7243235111236572
1,1.0,0.5969306016937338,0.39721440057519214,0.44164692132382805,0.47769905320507433,0.5124092735884755,0.552398844577726,0.5982906943923281,0.6544251158628759,0.7343243535547684,0.8557427700808344,1.5615752578700357,0.9203243243243243,0.5851126368907051,0.0,0.9295212765957447,50,1152,837,772022,no_split,narrow,individual,1,0.7243235111236572
0,0.0,0.4179140065023588,0.3434904739355521,0.36477620097742874,0.380285424300566,0.3945439912254531,0.40823905883552397,0.4232578550010952,0.4404628927877708,0.46381477523530434,0.5015649622464761,0.9699347982397248,0.9708333333333333,0.42678315961131075,0.0,0.9548663101604278,50,1152,845,772022,no_split,narrow,individual,1,0.7249360084533691
1,1.0,0.43613962882515006,0.3542747016559982,0.37567911377101604,0.3935729888650527,0.40873628812653234,0.4245245424079193,0.44134209318812745,0.461181686801584,0.4884380165006746,0.532691150254447,0.9542944015387038,0.9380219780219781,0.42678315961131075,0.0,0.9548663101604278,50,1152,845,772022,no_split,narrow,individual,1,0.7249360084533691
0,0.0,0.45982075267576866,0.3574411975478088,0.3766697071593826,0.39367316548371606,0.4101682423470452,0.42782461824612816,0.4486402803827146,0.4783721805526722,0.5215193339086717,0.6023209044824166,1.3583693587639032,0.9839106145251396,0.4825959518597587,0.0,0.9665027322404371,50,1152,916,772022,no_split,narrow,individual,1,0.7284460067749023
1,1.0,0.5043968109717064,0.3783655207187297,0.4079239165830051,0.4325302903054914,0.45650331290629165,0.4808003723620984,0.5083410141832656,0.5420145620759234,0.5857271758091838,0.6559583594127432,1.3051812330091157,0.9498395721925134,0.4825959518597587,0.0,0.9665027322404371,50,1152,916,772022,no_split,narrow,individual,1,0.7284460067749023
0,0.0,0.4111727552427479,0.3362457603986525,0.35641318901853364,0.37113613940338136,0.38503993439117423,0.39753592747491245,0.4130073817833526,0.43074978913126827,0.4556097237996585,0.4990468608700897,1.0529388736141154,0.9564971751412429,0.42474462786126344,0.0,0.9195663956639566,50,1152,985,772022,no_split,narrow,individual,1,0.7256369590759277
1,1.0,0.4372561979314575,0.3451258021948117,0.36781485758479876,0.38672690682869415,0.40408183742862197,0.4219368720776413,0.4419545831708265,0.4652279456804351,0.49645737704564513,0.5482473799459787,1.0627107110525726,0.8855208333333333,0.42474462786126344,0.0,0.9195663956639566,50,1152,985,772022,no_split,narrow,individual,1,0.7256369590759277
0,0.0,0.4107196013528858,0.3347007048423907,0.3546457325381273,0.37017367120122024,0.3840749509276561,0.3971634533742849,0.4114991921747251,0.4295012272069293,0.45490713180506603,0.5026977248322696,0.9970368445889973,0.9631818181818181,0.4287702847220789,0.0,0.900578947368421,50,1152,1108,772022,no_split,narrow,individual,1,0.7232999801635742
1,1.0,0.4443434233151082,0.3547917284755378,0.37853856474083386,0.39700216624498624,0.41326251527246977,0.4304596320522499,0.44959540325228814,0.4725199253035388,0.5031004236660026,0.5508748210137349,0.9180136883030116,0.8465686274509804,0.4287702847220789,0.0,0.900578947368421,50,1152,1108,772022,no_split,narrow,individual,1,0.7232999801635742
0,0.0,0.4358566822129942,0.34647099547068616,0.37105033090367795,0.3888017134670411,0.40566490310348086,0.4218716293062359,0.44092688971779687,0.4616917711068483,0.49095996643120676,0.5407502628302965,1.1185105340248307,0.9496482412060302,0.447576453909275,0.0,0.904963144963145,50,1152,1507,772022,no_split,narrow,individual,1,0.7234899997711182
1,1.0,0.45878912009946676,0.3645477226653747,0.3902468485524952,0.41028136300442497,0.42910844836271017,0.4482134868952965,0.4676934391213512,0.4900542359955182,0.5189741068512694,0.5656640073565973,1.1705599893299194,0.8622115384615384,0.447576453909275,0.0,0.904963144963145,50,1152,1507,772022,no_split,narrow,individual,1,0.7234899997711182
0,0.0,0.44808834021317984,0.36067308705620704,0.383203522179913,0.40066001150897174,0.41736599942910235,0.4338750201730085,0.45141827462492234,0.47348955755276034,0.5030527460475676,0.5533544794269909,1.1603554404756828,0.9741935483870968,0.45813435703847805,0.0,0.9643455497382198,50,1152,1538,772022,no_split,narrow,individual,1,0.7342078685760498
1,1.0,0.4676678219849345,0.36913932110038555,0.39360845365977526,0.41363478449036534,0.4316962145716394,0.4506967312423023,0.47129050618025936,0.4974862977720442,0.5304415835582366,0.5859386221894906,1.1794134216691636,0.955,0.45813435703847805,0.0,0.9643455497382198,50,1152,1538,772022,no_split,narrow,individual,1,0.7342078685760498
0,0.0,0.4595182121605078,0.37109032400538666,0.3925494919185598,0.409181546414696,0.424680829423622,0.4411192274933956,0.45794924393814235,0.4810140017507512,0.5131055679327716,0.5704503828367313,1.2164285777640098,0.9921276595744681,0.4841472757166393,0.0,0.9725136612021857,50,1152,1582,772022,no_split,narrow,individual,1,0.7312672138214111
1,1.0,0.5101599945287331,0.40728719548220754,0.4350710253670205,0.45602391719007623,0.4765361912455761,0.49566726895466046,0.5170845568817343,0.542762573256712,0.57564075533717,0.6290966831786806,1.2159639715846138,0.9517977528089888,0.4841472757166393,0.0,0.9725136612021857,50,1152,1582,772022,no_split,narrow,individual,1,0.7312672138214111
0,0.0,0.44080753614158075,0.34656731726439355,0.3676065560487979,0.38442647422887166,0.399273800676291,0.4156718317635947,0.43444540680268245,0.4585656359238703,0.4943832177523607,0.5680862287398648,1.2479081290712455,0.9782914572864322,0.4664777129054031,0.0,0.9306265664160401,50,1152,1583,772022,no_split,narrow,individual,1,0.7311747074127197
1,1.0,0.4920195387854063,0.38463088006443,0.41293975376178166,0.4342623142738188,0.45530207934774336,0.47640391019043926,0.4998370806563697,0.5254151296759888,0.5605323615749198,0.618127361962978,1.3032761826420267,0.8832,0.4664777129054031,0.0,0.9306265664160401,50,1152,1583,772022,no_split,narrow,individual,1,0.7311747074127197
0,0.0,0.5419943452970039,0.4011291956576876,0.42703983109378757,0.44852170860294205,0.4726411140840813,0.49851375542286636,0.5297006018100976,0.5721130202748479,0.6360579446013388,0.7448421534715246,1.539276990139678,0.9626229508196721,0.5575288619484261,0.0,0.9462637362637363,50,1152,1597,772022,no_split,narrow,individual,1,0.7350106239318848
1,1.0,0.5732350307175434,0.427953836234141,0.45963207809628087,0.48546978889320114,0.5135343609328924,0.5416396523997992,0.5732969711294106,0.6112272313893585,0.6669498363673722,0.7597159667208175,1.5865336083802595,0.9297237569060773,0.5575288619484261,0.0,0.9462637362637363,50,1152,1597,772022,no_split,narrow,individual,1,0.7350106239318848
0,0.0,0.4158634080247393,0.33055878869710237,0.354195596477041,0.3723251196797015,0.3883003159951533,0.404369191827598,0.4216086070596335,0.4418603828430162,0.46651219389342846,0.5083958323854049,1.169773849091937,0.9814207650273225,0.4360336684890525,0.0,0.9595733333333333,50,1152,1601,772022,no_split,narrow,individual,1,0.7381448745727539
1,1.0,0.4552584479941009,0.34512709976816985,0.3739418666583403,0.3960127742859429,0.4172712164116997,0.43972785003604903,0.46309482513850403,0.49133372891648847,0.5281840300303894,0.5861566090905926,1.1428664235726191,0.93875,0.4360336684890525,0.0,0.9595733333333333,50,1152,1601,772022,no_split,narrow,individual,1,0.7381448745727539
0,0.0,0.47974761213656447,0.36589680233268607,0.3935957504277697,0.41523979374432657,0.4367391114527726,0.45640696682556725,0.48008455578437625,0.50813870779774,0.5483927776203551,0.6200328946901507,1.3578592665442137,0.9838613861386138,0.49817455374740105,0.0,0.9697849462365591,50,1152,1614,772022,no_split,narrow,individual,1,0.7508020401000977
1,1.0,0.5200700961320422,0.39272361412871204,0.4249412263152209,0.4504761046087839,0.4742824837247659,0.49993942682660103,0.5271584688296943,0.560398628384775,0.6030099035618163,0.6736307463697707,1.3924116380618694,0.9530588235294117,0.49817455374740105,0.0,0.9697849462365591,50,1152,1614,772022,no_split,narrow,individual,1,0.7508020401000977
0,0.0,0.4672838215330893,0.37119382653774347,0.3987407519133847,0.41978559369250384,0.43761987256378393,0.4557433613360665,0.47513221013041634,0.49746470157579875,0.5255541726586238,0.5750286701836953,1.0768808625229296,0.9848618784530386,0.4860815953330978,0.0,0.9617894736842105,50,1152,1638,772022,no_split,narrow,individual,1,0.7385172843933105
1,1.0,0.5031790679853668,0.3954496610616513,0.4253654946778244,0.44945923450442615,0.47006449124007016,0.4901301662786476,0.5132105770405064,0.5394953087061255,0.5730964803001376,0.6281816894623178,1.282072227061548,0.9408040201005025,0.4860815953330978,0.0,0.9617894736842105,50,1152,1638,772022,no_split,narrow,individual,1,0.7385172843933105
0,0.0,0.3992300869579628,0.3274701787707654,0.3466832222458735,0.36162730791321546,0.375247816547346,0.38881314117220045,0.40368488897638705,0.4211003731919652,0.4431951801188489,0.48147105175896554,0.909020195879783,0.9628571428571429,0.4079225462455536,0.0,0.9370350404312668,50,1152,1657,772022,no_split,narrow,individual,1,0.7387275695800781
1,1.0,0.41765810064765524,0.33515113384776907,0.35602221551215213,0.37292744106967635,0.3888987182103768,0.4044486249119156,0.4230444869465417,0.4448426205415613,0.4710037303658887,0.5173890606793857,0.953014886673013,0.9081142857142858,0.4079225462455536,0.0,0.9370350404312668,50,1152,1657,772022,no_split,narrow,individual,1,0.7387275695800781
0,0.0,0.4540830083877905,0.3710535180719073,0.3933618568799464,0.4090754469763202,0.4236367587679763,0.43928195825816996,0.45647948839849567,0.47648016111600355,0.505028540128013,0.5538141460352649,1.20148191854102,0.987897435897436,0.4716396701063966,0.0,0.9695939086294416,50,1152,1663,772022,no_split,narrow,individual,1,0.7416477203369141
1,1.0,0.4888434341020157,0.39864957822252317,0.4225783032922442,0.44294308665721754,0.4601579995075321,0.47713934745879427,0.49560899845036244,0.518216395221134,0.5475076241469948,0.5923799296288472,1.0855633725855638,0.9516582914572864,0.4716396701063966,0.0,0.9695939086294416,50,1152,1663,772022,no_split,narrow,individual,1,0.7416477203369141
0,0.0,0.5002422237035277,0.3910832986525036,0.4169458997870877,0.4374494592257243,0.45789728393250556,0.4769004301940023,0.5002019638991101,0.5299742853050311,0.5665172778561246,0.6348892958172505,1.4244540605274378,0.969060773480663,0.5088309094344585,0.0,0.955303867403315,50,1152,1761,772022,no_split,narrow,individual,1,0.7434661388397217
1,1.0,0.5174195951653893,0.4049598428756083,0.4315124651398339,0.4542118007993072,0.4748102303961567,0.4967517093785325,0.5216675992329736,0.5504734036421882,0.5894730237853941,0.6567924545085597,1.302218601944155,0.9415469613259668,0.5088309094344585,0.0,0.955303867403315,50,1152,1761,772022,no_split,narrow,individual,1,0.7434661388397217
0,0.0,0.454460781198031,0.3562400021241851,0.3806888402728635,0.4012232673694308,0.41921990017822613,0.43723516806592333,0.45843457094732043,0.48268304161755643,0.5168677752032531,0.5716758188837884,1.283131194180292,0.9569565217391305,0.46407496715895574,0.0,0.9383783783783783,50,1152,1768,772022,no_split,narrow,individual,1,0.7464234828948975
1,1.0,0.47358577477621483,0.3652936380508208,0.3925105413182194,0.41301648184993744,0.43265261764308416,0.45257314149534733,0.4756235992476075,0.5053466695068545,0.5446704342876941,0.6079033618123987,1.1156200056812977,0.92,0.46407496715895574,0.0,0.9383783783783783,50,1152,1768,772022,no_split,narrow,individual,1,0.7464234828948975
0,0.0,0.3816997639104622,0.3032527806009007,0.32608933028787623,0.34245787499827407,0.35815862131911846,0.37319581601009044,0.38913195160748204,0.4068995164307369,0.43078080880197417,0.4692432937424367,0.8555417878074497,0.9518435754189944,0.3919003009835373,0.0,0.9120855614973262,50,1152,1813,772022,no_split,narrow,individual,1,0.7413623332977295
1,1.0,0.40126387091215493,0.31410962965668937,0.3390514332895116,0.3580946176430103,0.3745193508831766,0.39147095317907266,0.4109223234111037,0.43056279907267,0.45827371353479274,0.5001336168741461,0.8413496477298036,0.8755897435897436,0.3919003009835373,0.0,0.9120855614973262,50,1152,1813,772022,no_split,narrow,individual,1,0.7413623332977295
0,0.0,0.3983628264987452,0.31062385862900865,0.3311506000427756,0.3473392375565035,0.3626839809801399,0.3786550871067239,0.3965318281270403,0.4185272081964122,0.45228962465690803,0.5138877485075457,1.1701512698656547,0.9797073170731707,0.41534566989377547,0.0,0.9621287128712871,50,1152,1821,772022,no_split,narrow,individual,1,0.740103006362915
1,1.0,0.432840558818304,0.3329800301740214,0.3577178373945002,0.3763098234593143,0.39534727350278476,0.41538696704988376,0.4372491540902008,0.46395916945468263,0.49759933748702917,0.5561561111183595,1.0864258365888182,0.9440201005025126,0.41534566989377547,0.0,0.9621287128712871,50,1152,1821,772022,no_split,narrow,individual,1,0.740103006362915
0,0.0,0.39365844218054835,0.31341734690490725,0.33092773605309517,0.34550387866878013,0.35826530776083126,0.3734367374726175,0.3909982467274287,0.41266284192362435,0.44507119557794184,0.5013468499774013,1.1243556202688643,0.9806629834254144,0.4042041742373833,0.0,0.9695744680851064,50,1152,3286,772022,no_split,narrow,individual,1,0.7381727695465088
1,1.0,0.4139927768132146,0.32918286628211474,0.3494690863397386,0.3657784725645607,0.38144719925589604,0.3978868928142715,0.4163337784559871,0.4386560401511891,0.4685161236244452,0.5187674281738892,1.0441225123615525,0.9592820512820512,0.4042041742373833,0.0,0.9695744680851064,50,1152,3286,772022,no_split,narrow,individual,1,0.7381727695465088
0,0.0,0.4717029584138179,0.37645537769279863,0.39819130169128125,0.4166935485199341,0.43407463225312837,0.4505352562805855,0.47080273279827617,0.49502845498178105,0.5289035259156317,0.5923132170086527,1.3745102725249307,0.9785227272727273,0.492036250672415,0.0,0.9514285714285714,50,1152,3292,772022,no_split,narrow,individual,1,0.7419376373291016
1,1.0,0.5110716732123783,0.399991798270772,0.42882169037924134,0.4522019231535975,0.4724936676298666,0.49402708002547896,0.5180294293273356,0.5470995529393003,0.5833237494854194,0.6410180686459047,1.26738561934771,0.926063829787234,0.492036250672415,0.0,0.9514285714285714,50,1152,3292,772022,no_split,narrow,individual,1,0.7419376373291016
0,0.0,0.3998150812881805,0.325134978828884,0.34665446312022224,0.361354503264389,0.3753531302549256,0.389210195050928,0.4033176209494374,0.42033021376337565,0.4428852928073606,0.48350351280860665,0.9603325501527574,0.9755080213903743,0.417679860213963,0.0,0.9231688311688312,50,1152,3487,772022,no_split,narrow,individual,1,0.7413592338562012
1,1.0,0.4345521514216463,0.3508913062670738,0.37560601041389213,0.3933930609581371,0.4101993832641898,0.4261188685728394,0.44284439107076445,0.4620644606045146,0.4875145689325618,0.5264759630706327,0.9389882758835995,0.8737373737373737,0.417679860213963,0.0,0.9231688311688312,50,1152,3487,772022,no_split,narrow,individual,1,0.7413592338562012
0,0.0,0.4058199907445088,0.3460053027804169,0.365466682465423,0.37943112313398625,0.39124653387289826,0.4033218762692874,0.41431950668456147,0.4281483072875097,0.4442514204730476,0.46788912403405813,0.7474943005320475,0.9736318407960199,0.4134737866748394,0.0,0.9385786802030457,50,1152,3580,772022,no_split,narrow,individual,1,0.7388637065887451
1,1.0,0.4214448383950283,0.3552883223116274,0.3755084617466506,0.3906363803039557,0.403533272578465,0.4158936686209349,0.4293853438838452,0.4447799390466516,0.46392420639131215,0.49418157109307437,0.8245009505607477,0.9020725388601036,0.4134737866748394,0.0,0.9385786802030457,50,1152,3580,772022,no_split,narrow,individual,1,0.7388637065887451
0,0.0,0.4827673104140912,0.3783599915602906,0.40446029376892845,0.4234315666323241,0.44226900790389617,0.46105093350902987,0.4832354959350609,0.5099025477602811,0.5483395324751766,0.6142357437006258,1.439770919108241,0.9301075268817204,0.4889610712700008,0.0,0.9113812154696133,50,1152,3625,772022,no_split,narrow,individual,1,0.7476484775543213
1,1.0,0.49550675035636005,0.38057313897606126,0.4072225346626273,0.42926192247095246,0.4500620211150811,0.4712146933995739,0.4959701971804831,0.5269808252787692,0.5676109454897555,0.6412788814639978,1.4197576262005618,0.8915909090909091,0.4889610712700008,0.0,0.9113812154696133,50,1152,3625,772022,no_split,narrow,individual,1,0.7476484775543213
0,0.0,0.523010509032102,0.4232610656321371,0.45159206908385713,0.4719009951107046,0.4919395125172882,0.5102019487489633,0.5294757593781517,0.552049197810551,0.5819945749011317,0.6357110452630488,1.3479726351061307,0.9913483146067416,0.5490255203738101,0.0,0.9748509485094851,50,1152,3754,772022,no_split,narrow,individual,1,0.7448692321777344
1,1.0,0.5732698764933079,0.4432314891399824,0.4773944711681786,0.5048599702536783,0.5295163347462739,0.5556418876445063,0.5828930466689319,0.6176019696665835,0.6599793508755363,0.7284304790921546,1.4614371195353861,0.959476439790576,0.5490255203738101,0.0,0.9748509485094851,50,1152,3754,772022,no_split,narrow,individual,1,0.7448692321777344
0,0.0,0.4088855754144746,0.3372886432449609,0.3577290929927537,0.37297672939351173,0.38686226783112576,0.3996761614016801,0.4140751388657978,0.43021519736300595,0.4526407452686313,0.49125439969138845,1.050052937732644,0.9924468085106383,0.4237681742573423,0.0,0.9783937823834197,50,1152,3910,772022,no_split,narrow,individual,1,0.733558177947998
1,1.0,0.4378991266940045,0.3573843261832693,0.37971484387062276,0.3978483255556823,0.4134654772085586,0.4281611116774602,0.44490594661943095,0.46522350290272385,0.4897492472358155,0.5297498109629516,1.0316150028561433,0.965050505050505,0.4237681742573423,0.0,0.9783937823834197,50,1152,3910,772022,no_split,narrow,individual,1,0.733558177947998
0,0.0,0.40098084627434755,0.3357133974234738,0.35059805500138586,0.36192761628164205,0.37316480308275957,0.3849595050400234,0.3988862475727561,0.41680455961627866,0.4425810836314877,0.4845851723531399,0.918998665952451,0.9883977900552486,0.4143521312293282,0.0,0.9762631578947368,50,1152,4222,772022,no_split,narrow,individual,1,0.728093147277832
1,1.0,0.4265139532235568,0.3537277819232646,0.37114801453837026,0.3849889926869952,0.3986786310480903,0.4125852654610239,0.4285427268783105,0.4482463110930493,0.47370361758178814,0.5153027353002938,1.062372531081006,0.9652261306532663,0.4143521312293282,0.0,0.9762631578947368,50,1152,4222,772022,no_split,narrow,individual,1,0.728093147277832
0,0.0,0.4552711415757364,0.3522972388583004,0.37779773445262155,0.3985544212356626,0.4173282171185217,0.4356936597984459,0.45769663855980797,0.4826948347202515,0.5161333816566319,0.577822446270753,1.3775214460213832,0.951010101010101,0.47227321763301344,0.0,0.8980352644836272,50,1152,4264,772022,no_split,narrow,individual,1,0.7286953926086426
1,1.0,0.4891898561221637,0.3699210714825135,0.4002025497546494,0.4239762878735044,0.44713528089199733,0.4699843717715061,0.4959596919443152,0.5260599297988199,0.5672361230267696,0.6336195109783908,1.3764142211415975,0.8453266331658291,0.47227321763301344,0.0,0.8980352644836272,50,1152,4264,772022,no_split,narrow,individual,1,0.7286953926086426
0,0.0,0.42052656534991284,0.3570989773704569,0.3762655798718167,0.3898460556898238,0.40162689015751224,0.41414873146683684,0.42721431587235736,0.44109747163540886,0.4591261702646388,0.48956216378354855,0.823457582287588,0.9932275132275132,0.4354336464573505,0.0,0.9797826086956521,50,1152,5281,772022,no_split,narrow,individual,1,0.7255215644836426
1,1.0,0.4511735253920194,0.3714090694530055,0.3929143866424815,0.40943134369285805,0.42606556960553343,0.4408006295755384,0.4582504430182116,0.47780862779991273,0.5034710267921894,0.5439315423985995,1.010182043453763,0.965586592178771,0.4354336464573505,0.0,0.9797826086956521,50,1152,5281,772022,no_split,narrow,individual,1,0.7255215644836426
0,0.0,0.44833784562911244,0.36256929468825416,0.3855767483732566,0.40254313729790475,0.4181569092476867,0.433614911493158,0.45018250695005313,0.47015300835486834,0.498048582847909,0.5504908243426153,1.1416189875314195,0.9965217391304347,0.4699115019938752,0.0,0.9862162162162162,50,1152,5332,772022,no_split,narrow,individual,1,0.7245650291442871
1,1.0,0.49125318355901687,0.3975124979750568,0.42428488095659345,0.4439764652813366,0.46248853209845686,0.4804086598439615,0.5006951363864257,0.5221236994952542,0.5501429224188145,0.59631132847313,1.0948700615825169,0.9760215053763441,0.4699115019938752,0.0,0.9862162162162162,50,1152,5332,772022,no_split,narrow,individual,1,0.7245650291442871
0,0.0,0.44970370727646,0.37065439306747466,0.39375383860680246,0.4099636355319694,0.4251714056136169,0.44022411925847627,0.4556537046357634,0.4744191332766049,0.4986017903903989,0.540607208855735,0.9081701085599443,0.9814213197969544,0.46313207548982294,0.0,0.9595897435897436,50,1152,5575,772022,no_split,narrow,individual,1,0.7284529209136963
1,1.0,0.4768387518526857,0.38687594752021703,0.4120869844118777,0.43136556841130025,0.4485557633124015,0.46635704396200384,0.48533200366144835,0.506668029763138,0.5344280903668246,0.5807170491968282,0.9824270164516283,0.9373056994818653,0.46313207548982294,0.0,0.9595897435897436,50,1152,5575,772022,no_split,narrow,individual,1,0.7284529209136963
0,0.0,0.44468067837342745,0.3547218261492399,0.37963328836161087,0.39727901800144294,0.4147475970340643,0.4315634628521942,0.4500117939529856,0.4706030906714052,0.49926630904354985,0.5509339149995142,1.0837478350779979,0.9526424870466321,0.4546664807311859,0.0,0.9203061224489796,50,1152,5731,772022,no_split,narrow,individual,1,0.7257354259490967
1,1.0,0.46435120362087123,0.36811599011225576,0.39454089213321936,0.41342903905951356,0.4325410487109404,0.45100971115003186,0.4718742530732791,0.49475951523179057,0.5268921497455388,0.5756800859061387,1.091724670197744,0.8889447236180904,0.4546664807311859,0.0,0.9203061224489796,50,1152,5731,772022,no_split,narrow,individual,1,0.7257354259490967
0,0.0,0.4352012650243094,0.35703983159279373,0.3809219161998608,0.3983840115760123,0.41407191504932567,0.4290156166928967,0.4447633276822022,0.46175271295014875,0.4836866150376292,0.5179876211905278,0.8995967673642056,0.9893478260869565,0.4551278437568079,0.0,0.9497547683923706,50,1152,5761,772022,no_split,narrow,individual,1,0.7227411270141602
1,1.0,0.47516331089768093,0.38445119654880916,0.4117040183074516,0.43271214627753546,0.4508204238003816,0.46722940806692603,0.48612592916413616,0.5084518639935169,0.5357123801771585,0.5762790853215699,0.956567538911737,0.9099453551912569,0.4551278437568079,0.0,0.9497547683923706,50,1152,5761,772022,no_split,narrow,individual,1,0.7227411270141602
0,0.0,0.4416210252346739,0.330363902583219,0.3556702316960449,0.37499050242594806,0.3942379184541082,0.4153561565181011,0.437785186061789,0.4691141357907108,0.5134084333564807,0.5889877447198704,1.3252130449806079,0.916547619047619,0.4515446577135442,0.0,0.8884010840108401,50,1152,5803,772022,no_split,narrow,individual,1,0.7214186191558838
1,1.0,0.4598390370988686,0.349642428449611,0.3752796400823417,0.39704373286053835,0.4165238268184181,0.4375417477941256,0.46199897996950096,0.49103541733314415,0.5309878014827148,0.5963387536967124,1.4002533734920086,0.8648756218905472,0.4515446577135442,0.0,0.8884010840108401,50,1152,5803,772022,no_split,narrow,individual,1,0.7214186191558838
0,0.0,0.500239238054301,0.3786700139814101,0.41082857493826913,0.4335124897951018,0.4550394787877423,0.477488009529461,0.5034214420545601,0.5330542573351897,0.573879908729882,0.6478561375670416,1.299141637728601,0.9582089552238806,0.5154002926053247,0.0,0.9350387596899224,50,1152,5815,772022,no_split,narrow,individual,1,0.7244584560394287
1,1.0,0.531784012845947,0.40293829847758084,0.436217663014692,0.46360257381731623,0.48835584674247673,0.5138350421077043,0.5408258454752933,0.5723216255575739,0.6148736062129055,0.6808506137214753,1.3937478937041778,0.91,0.5154002926053247,0.0,0.9350387596899224,50,1152,5815,772022,no_split,narrow,individual,1,0.7244584560394287
0,0.0,0.413026402932138,0.3476621803513713,0.3645776837511882,0.37712825142542294,0.38895222498399423,0.39996316677233956,0.41342645859272237,0.4296687731974686,0.45172130800541677,0.49059247680461066,0.9775312101210802,0.9951685393258427,0.4404992459903322,0.0,0.9748228882833787,50,1152,6055,772022,no_split,narrow,individual,1,0.7188990116119385
1,1.0,0.46637314051074785,0.37727651675504875,0.39988632496996257,0.41797158418571995,0.4356871095215015,0.45366510847176716,0.4737841232707854,0.496055043076942,0.526014724179727,0.570918424825447,0.9203413228143394,0.9556613756613757,0.4404992459903322,0.0,0.9748228882833787,50,1152,6055,772022,no_split,narrow,individual,1,0.7188990116119385
0,0.0,0.4714574579115474,0.3584916242593798,0.38184227880188243,0.40312664276209204,0.4231051269721789,0.4449126281277639,0.4688659452314065,0.4999048291699137,0.5470444127404953,0.6194188658976262,1.4066197280836283,0.9529591836734694,0.4747759220329154,0.0,0.9462841530054645,50,1152,6109,772022,no_split,narrow,individual,1,0.7232732772827148
1,1.0,0.47860191596108076,0.3697830201790627,0.3933595026618725,0.41252914140276653,0.43311564962595117,0.4533200378364027,0.4767483641910511,0.5066971990986557,0.54769671154017,0.6222255143705846,1.3616485815621013,0.9385882352941176,0.4747759220329154,0.0,0.9462841530054645,50,1152,6109,772022,no_split,narrow,individual,1,0.7232732772827148
0,0.0,0.3968367756820495,0.33122092582553453,0.3476736589458567,0.3600523930160778,0.3709980456886967,0.3827605159897157,0.39539644896728465,0.4116394742162476,0.4342761921315392,0.47915020634815125,0.949493024006476,0.9830188679245283,0.41614250709464873,0.0,0.9386091127098322,50,1152,6214,772022,no_split,narrow,individual,1,0.7243599891662598
1,1.0,0.4361074586042636,0.35959310898790803,0.3803045941119908,0.3961605427141796,0.41107817552685255,0.42550553213311265,0.4419768933011325,0.4608913720499942,0.48552019709270094,0.5231738657525069,0.8854900673165987,0.8926829268292683,0.41614250709464873,0.0,0.9386091127098322,50,1152,6214,772022,no_split,narrow,individual,1,0.7243599891662598
0,0.0,0.4552402264908835,0.3632614405860305,0.3886732356075932,0.4075961825460859,0.42503414436107034,0.4421629510268047,0.4604015472737532,0.48242893908582996,0.5124026329675003,0.5615624594243533,1.1742028512428822,0.9445744680851064,0.4589324652619271,0.0,0.9302387267904509,50,1152,6253,772022,no_split,narrow,individual,1,0.7208566665649414
1,1.0,0.46260516837809756,0.36508235269019895,0.3913938250196642,0.41106607761509534,0.42913367255076673,0.4478672011463132,0.4679559331593814,0.49222235391629515,0.5234066770542157,0.5753219539601192,1.0659208093509218,0.915978835978836,0.4589324652619271,0.0,0.9302387267904509,50,1152,6253,772022,no_split,narrow,individual,1,0.7208566665649414
0,0.0,0.45652263498823514,0.3739561448454094,0.3996847559325608,0.41808682438823197,0.43497859882365253,0.4504752207971067,0.4672805419527686,0.48679306991639243,0.5091288705109845,0.5447544543223725,0.9416950417976157,0.9720441988950276,0.46866952957137675,0.0,0.9358152173913044,50,1152,6262,772022,no_split,narrow,individual,1,0.7207961082458496
1,1.0,0.48042668422136936,0.38913969181087504,0.4160893950413698,0.43800254303244734,0.4567410920686953,0.4748844361338153,0.4935369958323973,0.513079094580625,0.5401276475420385,0.5795402302249716,0.9648195925970302,0.9007486631016043,0.46866952957137675,0.0,0.9358152173913044,50,1152,6262,772022,no_split,narrow,individual,1,0.7207961082458496
0,0.0,0.4969413971092779,0.406603334103395,0.42894586576748894,0.4470961454723574,0.46354851220399834,0.4798238390430833,0.4984214435391487,0.5212094041282398,0.5533215299608079,0.6080020276451283,1.212895550217945,0.9911229946524064,0.5082839141985095,0.0,0.9827717391304348,50,1152,6361,772022,no_split,narrow,individual,1,0.7182490825653076
1,1.0,0.5200024263293732,0.4246602589088709,0.4495868134394924,0.46893567244544987,0.48706429291143644,0.5060991541967874,0.5261389517169899,0.5502319756638147,0.5821699804859324,0.6335076832747246,1.1517178858405155,0.9741436464088398,0.5082839141985095,0.0,0.9827717391304348,50,1152,6361,772022,no_split,narrow,individual,1,0.7182490825653076
0,0.0,0.41474801728354566,0.3395859201087461,0.3611410195247875,0.37789187393622586,0.3918581826675839,0.4058619434631183,0.4204639318033756,0.43818042610049424,0.46117844820169385,0.5006724025994579,0.9468115849652426,0.973551912568306,0.42450586606200436,0.0,0.9437894736842105,50,1152,6427,772022,no_split,narrow,individual,1,0.7201852798461914
1,1.0,0.43357026365823753,0.3551008294701705,0.37821819407315893,0.39777614129884264,0.4122515304444279,0.42661165159405157,0.44212785106489627,0.4602190133116234,0.4847409060180392,0.5203556571752883,0.8908309094270844,0.9161421319796954,0.42450586606200436,0.0,0.9437894736842105,50,1152,6427,772022,no_split,narrow,individual,1,0.7201852798461914
0,0.0,0.4607206367186939,0.37790533592104,0.3969803325637371,0.41222662257029447,0.42823201266964306,0.4442700599332985,0.4617127767041264,0.4843048301808822,0.5140762339740207,0.5638723483844775,1.0790284663147887,0.9701570680628272,0.46768969551843775,0.0,0.9632717678100264,50,1152,6583,772022,no_split,narrow,individual,1,0.7173740863800049
1,1.0,0.4747699627032839,0.39450003875195544,0.41458196405429787,0.4309426062965388,0.44609859486269576,0.46074916186126613,0.4770902740982412,0.49771619738415473,0.525536956889411,0.5737687138468647,1.0685046351147394,0.9562765957446808,0.46768969551843775,0.0,0.9632717678100264,50,1152,6583,772022,no_split,narrow,individual,1,0.7173740863800049
0,0.0,0.44061875583838944,0.3565013669492772,0.380138788705601,0.3972746264658728,0.41309794333777855,0.42916505208636535,0.445891122596621,0.4652118541045981,0.49109190948030107,0.5367176642882071,1.0593340441215795,0.9804102564102564,0.45882418903607525,0.0,0.9507179487179487,50,1152,6634,772022,no_split,narrow,individual,1,0.7179460525512695
1,1.0,0.4770296222337609,0.3816081826315636,0.40815327906600873,0.42858077570721487,0.44777145936297386,0.4664561291957491,0.48695874529829536,0.5095588320821504,0.5389341245876432,0.5849640105998382,0.9616125691911275,0.921025641025641,0.45882418903607525,0.0,0.9507179487179487,50,1152,6634,772022,no_split,narrow,individual,1,0.7179460525512695
0,0.0,0.4496140892989909,0.37696866654258415,0.39676454119238663,0.41200350441704675,0.4260277537416996,0.4397592856828268,0.453651050741144,0.4698240483084961,0.4917542356026013,0.5292769577820872,1.0092010952577135,0.9866315789473684,0.4751987246371214,0.0,0.93856,50,1152,6844,772022,no_split,narrow,individual,1,0.7136456966400146
1,1.0,0.501474836606012,0.4029664809399426,0.42834089760763155,0.4491475250221848,0.46872603498777426,0.48898225173212745,0.5096798163895291,0.5345699613097009,0.5678459220862364,0.6163253947922774,1.1850800823105951,0.8891891891891892,0.4751987246371214,0.0,0.93856,50,1152,6844,772022,no_split,narrow,individual,1,0.7136456966400146
0,0.0,0.44595507780673127,0.3583066393510842,0.38227859687334265,0.39977839366744106,0.4153116606733683,0.43190188624874876,0.4489962601854327,0.47102241141812107,0.5004262237716989,0.5502281163603613,1.0617965459815664,0.9734426229508196,0.4613509997783941,0.0,0.943433242506812,50,1152,7624,772022,no_split,narrow,individual,1,0.7141051292419434
1,1.0,0.4766632482610807,0.3768063050511061,0.4041602014587969,0.4252802563637658,0.44362673234763617,0.46289595664561434,0.4839808623755343,0.5096092070177127,0.5421746898030632,0.5952146151831063,1.1511876474492762,0.9135869565217392,0.4613509997783941,0.0,0.943433242506812,50,1152,7624,772022,no_split,narrow,individual,1,0.7141051292419434
0,0.0,0.410193879198889,0.3403304583110439,0.3585005152602795,0.37292449787476484,0.3855147202185716,0.3983161607885437,0.4126008144713302,0.42832358424070277,0.45093746788849337,0.4903096847949306,1.0256589340680315,0.9752941176470589,0.42698166183558367,0.0,0.9236553524804177,50,1152,7756,772022,no_split,narrow,individual,1,0.7176914215087891
1,1.0,0.44299857690222605,0.36233889655419244,0.38301511564534946,0.4000417374461687,0.4153309381408226,0.4307914891670348,0.448710473299666,0.4693457608538341,0.4955786554134547,0.5399601156712361,0.984670540533194,0.8743877551020408,0.42698166183558367,0.0,0.9236553524804177,50,1152,7756,772022,no_split,narrow,individual,1,0.7176914215087891
0,0.0,0.4331125325391834,0.3381820958523024,0.36509936640716206,0.3864966852582182,0.4044149364111752,0.4226440678650823,0.4412964551570682,0.4633212607170536,0.49245666453968084,0.5386239694077869,1.0299254109854739,0.9785416666666666,0.4406452387155151,0.0,0.9724598930481283,50,1152,7768,772022,no_split,narrow,individual,1,0.7195343971252441
1,1.0,0.4485918298465903,0.3451743255523866,0.3738616646164712,0.395582639225526,0.41651130766939853,0.43558176881697386,0.4563576537448713,0.481340264890933,0.5148491462109526,0.5681238963343771,1.0792044549515243,0.9660439560439561,0.4406452387155151,0.0,0.9724598930481283,50,1152,7768,772022,no_split,narrow,individual,1,0.7195343971252441
0,0.0,0.4040014448954916,0.3171613249433272,0.3405016139587779,0.35702810529325846,0.37233003157320205,0.38789188702181054,0.40506920331468,0.42506130427795535,0.4555338796936132,0.5099690659364554,1.2673790588443754,0.9691978609625669,0.4228960836038802,0.0,0.9225268817204301,50,1152,7807,772022,no_split,narrow,individual,1,0.7131099700927734
1,1.0,0.4419949886766837,0.3376495738261027,0.36344039387756066,0.38656400543977487,0.40679154978909915,0.42774563840636015,0.450227143813546,0.47635915889719255,0.5098911803752736,0.5663269580676515,1.4264285715186324,0.8753513513513513,0.4228960836038802,0.0,0.9225268817204301,50,1152,7807,772022,no_split,narrow,individual,1,0.7131099700927734
0,0.0,0.39686876886033656,0.3240226619505104,0.3422502845962664,0.3553640805100154,0.36821668508786176,0.38146266460083567,0.39590030216996636,0.41521678611673757,0.4413761072269112,0.486881044473161,0.944929866367032,0.9795604395604396,0.4111738749598694,0.0,0.9555124653739612,50,1152,7813,772022,no_split,narrow,individual,1,0.7115521430969238
1,1.0,0.42571873144095856,0.34604196413258803,0.3671590298098997,0.38320588443723147,0.3982465452008946,0.41377576254359455,0.4308457053387942,0.4512242544967232,0.47578699678124076,0.5205071043454134,0.8804140298184927,0.9310614525139664,0.4111738749598694,0.0,0.9555124653739612,50,1152,7813,772022,no_split,narrow,individual,1,0.7115521430969238
0,0.0,0.40853411666587747,0.34751794603501623,0.3646103270454411,0.378197436692268,0.3897628347659574,0.40131291608815445,0.41344428295704905,0.42676084203746845,0.44492206940890994,0.4747548837039454,0.8838076479522298,0.9948936170212765,0.43252574527297577,0.0,0.9503465346534653,50,1152,7828,772022,no_split,narrow,individual,1,0.7199528217315674
1,1.0,0.45340734794952436,0.3801782130777404,0.4024386932867463,0.41796383334688514,0.43315905848324576,0.4470655946538078,0.4623808028825409,0.4788335322965605,0.5001756922650674,0.5316742801135684,0.8220479807912345,0.9115740740740741,0.43252574527297577,0.0,0.9503465346534653,50,1152,7828,772022,no_split,narrow,individual,1,0.7199528217315674
0,0.0,0.5312133031028463,0.39840135674562377,0.4270938497253223,0.4497419918975739,0.47158512682502435,0.4958945125054883,0.5229080961926521,0.5603213523991614,0.6110056950208234,0.7119248975370092,1.5803904564839426,0.9845502645502645,0.5567614726923185,0.0,0.9653229974160207,50,1152,7840,772022,no_split,narrow,individual,1,0.7225100994110107
1,1.0,0.5811483618459055,0.43394150295826855,0.47022546343041577,0.49860833025360646,0.5256330025149831,0.5538419890312762,0.5865935901780966,0.6258689267692242,0.6776949644298796,0.7613923647164927,1.4606931727175083,0.946969696969697,0.5567614726923185,0.0,0.9653229974160207,50,1152,7840,772022,no_split,narrow,individual,1,0.7225100994110107
0,0.0,0.4699148949528224,0.3899345527905249,0.4100472884733419,0.42579114502075227,0.4406094148695486,0.45562422189002,0.4717661703363553,0.4909519953704921,0.5192381810740455,0.5685355240651208,1.037023572984095,0.9992222222222222,0.4938409918687299,0.0,0.9942933333333334,50,1152,7924,772022,no_split,narrow,individual,1,0.7244307994842529
1,1.0,0.5159266197911059,0.42559805960779423,0.44948645012727967,0.4689902652590685,0.4866863893601573,0.5049553150704033,0.5237359659862342,0.5454045397181374,0.5749598467585278,0.6214215601573377,1.1609473307591622,0.9897435897435898,0.4938409918687299,0.0,0.9942933333333334,50,1152,7924,772022,no_split,narrow,individual,1,0.7244307994842529
0,0.0,0.4586417968896987,0.3731474985183536,0.3935528568115583,0.4109577726735862,0.4267590534096633,0.44360922137421244,0.4614025993425473,0.48183059925390587,0.5109253578612141,0.5628896478499094,1.2779585878651862,0.9867368421052631,0.4737689323295209,0.0,0.9749873417721518,50,1152,7939,772022,no_split,narrow,individual,1,0.7344076633453369
1,1.0,0.4877892042005757,0.3955617324857301,0.42002188256738915,0.43943297534197867,0.45791649681392776,0.47533837258866674,0.4942995688398888,0.516445705741455,0.5454977297820484,0.594007370210048,1.3241549625267681,0.9640975609756097,0.4737689323295209,0.0,0.9749873417721518,50,1152,7939,772022,no_split,narrow,individual,1,0.7344076633453369
0,0.0,0.45034258839161284,0.3650607172562664,0.3856310166354715,0.40117246905075143,0.41565623453183037,0.4311081775580411,0.44854164332401186,0.4701632763137653,0.5030946274690044,0.5615309815625119,1.23113583204489,0.9578181818181818,0.4631289694665154,0.0,0.9202259887005649,50,1152,8026,772022,no_split,narrow,individual,1,0.7280888557434082
1,1.0,0.474291683103335,0.3788155450641889,0.40265642996858503,0.42143359361005495,0.4397659187953214,0.4583278598482371,0.47822697507345435,0.5028095733614929,0.5371210781138901,0.5917424796390471,1.0992093748379503,0.8874074074074074,0.4631289694665154,0.0,0.9202259887005649,50,1152,8026,772022,no_split,narrow,individual,1,0.7280888557434082
0,0.0,0.44646978428421324,0.34867560576167717,0.3726711028389473,0.3910950026245582,0.4093776964255491,0.42732638334051914,0.4483253081656749,0.47442889136610983,0.5073064602452056,0.5670758085375064,1.28117981059499,0.9247058823529412,0.4532440651983002,0.0,0.906958904109589,50,1152,8311,772022,no_split,narrow,individual,1,0.7293457984924316
1,1.0,0.46036086593388587,0.35395249206167617,0.37951980709694266,0.3998814320785615,0.4199494407395696,0.4402262920647849,0.4624135606580047,0.489741908786978,0.5279917749027665,0.5934524179395867,1.3937930682665516,0.888314606741573,0.4532440651983002,0.0,0.906958904109589,50,1152,8311,772022,no_split,narrow,individual,1,0.7293457984924316
0,0.0,0.38668164066165545,0.31774250721622577,0.338231800017049,0.3536073515224622,0.36681872353986017,0.37965049269035317,0.3939382325996282,0.40924462617456214,0.42912184088025146,0.459159124626929,1.0824777935439676,0.9815544041450778,0.403322460412038,0.0,0.9336043360433605,50,1152,8446,772022,no_split,narrow,individual,1,0.7377216815948486
1,1.0,0.42157063207012796,0.3364181827475432,0.360020241332781,0.3782717154794867,0.3959967882914191,0.4129277915673854,0.43115374789530436,0.4509271193007899,0.47713702408320935,0.518521303916735,0.8847206821308662,0.8810227272727272,0.403322460412038,0.0,0.9336043360433605,50,1152,8446,772022,no_split,narrow,individual,1,0.7377216815948486
0,0.0,0.47575646466800825,0.39634161945155516,0.41630646118342585,0.43278849486842397,0.447282625934434,0.4625229986633472,0.47885192865450443,0.4981316059647588,0.5249936047813578,0.5709789648074748,1.09523803209122,0.9841206030150754,0.4858414483617573,0.0,0.9753246753246754,50,1152,8521,772022,no_split,narrow,individual,1,0.7391672134399414
1,1.0,0.49663129650721993,0.40602813003240434,0.4301548667830343,0.4493287012808403,0.4656742893133632,0.4824100057679015,0.5012917334496957,0.5244905342052527,0.5542336759530914,0.6047839757848438,1.0775726625554465,0.9659139784946237,0.4858414483617573,0.0,0.9753246753246754,50,1152,8521,772022,no_split,narrow,individual,1,0.7391672134399414
0,0.0,0.5440333595529074,0.4318834726052076,0.4603689274473798,0.48208594685300254,0.5029461814944718,0.5247660527888665,0.5480509312994334,0.5781828413600896,0.6185987227279405,0.6777807723690658,1.3773358827175965,0.9913661202185793,0.5510294202255378,0.0,0.9864183381088826,50,1152,8704,772022,no_split,narrow,individual,1,0.7313971519470215
1,1.0,0.5587419449429558,0.43654398189907034,0.4665213962550093,0.4909970365384853,0.5146893174710963,0.5384473733181766,0.5649099683278904,0.5944619462609703,0.6382090041344792,0.7055725972992722,1.4607449176132163,0.9809638554216867,0.5510294202255378,0.0,0.9864183381088826,50,1152,8704,772022,no_split,narrow,individual,1,0.7313971519470215
0,0.0,0.4405223981334466,0.3578182708844686,0.3785556749281797,0.3935487277625315,0.4095171430262831,0.4248395898780244,0.4418924350795273,0.4634967460546814,0.491221700211046,0.5417116024456873,0.9804956214813494,0.9922705314009662,0.45384420072394277,0.0,0.9859278350515464,50,1152,8755,772022,no_split,narrow,individual,1,0.7313926219940186
1,1.0,0.46907963241583606,0.3767701939413621,0.39917169448495454,0.41873413325413317,0.43697894996441394,0.4546796065828802,0.47436734138611186,0.49748831330188564,0.5307234199424888,0.5810950079036318,1.0762662418397158,0.9786740331491712,0.45384420072394277,0.0,0.9859278350515464,50,1152,8755,772022,no_split,narrow,individual,1,0.7313926219940186
0,0.0,0.4593212521417599,0.3685008106132834,0.39166214391388743,0.41108777689313036,0.42899224744220765,0.4463191216659765,0.4646685031668438,0.48616863095448754,0.5173495659060133,0.5662349169704032,1.2530350653138869,0.9717307692307692,0.466008396288773,0.0,0.9584,50,1152,8785,772022,no_split,narrow,individual,1,0.7373919486999512
1,1.0,0.47325280244803725,0.37865031596379817,0.406143855019308,0.42609478607937323,0.4445002654801216,0.4622970208043808,0.4816244859757278,0.5039474486278017,0.5328204405195153,0.5789703272151028,1.135008178277256,0.9439583333333333,0.466008396288773,0.0,0.9584,50,1152,8785,772022,no_split,narrow,individual,1,0.7373919486999512
0,0.0,0.40477120370016034,0.32480429338402,0.3437071911941329,0.35764548627990195,0.3711328388355332,0.38503440351808804,0.39944517627520304,0.4198779784700626,0.4490890326032729,0.5098689546318275,1.2060565469253812,0.9664893617021276,0.42714722762354435,0.0,0.9006683804627249,50,1152,8788,772022,no_split,narrow,individual,1,0.7405591011047363
1,1.0,0.4480760460195453,0.3505548193189553,0.3734913156704991,0.3927643413109785,0.41128322076485674,0.43046931599722593,0.4523300429286774,0.4772784143286428,0.5120011610240536,0.5674990675514445,1.1560220762433853,0.8391044776119403,0.42714722762354435,0.0,0.9006683804627249,50,1152,8788,772022,no_split,narrow,individual,1,0.7405591011047363
0,0.0,0.4262711136175243,0.37148507933412617,0.38644605844778096,0.39806593525053946,0.40830811713704857,0.4177242177652218,0.4289703310623928,0.4417242801015135,0.4584909253098436,0.48916566373295983,0.921368102045354,0.9921111111111112,0.4443405464495611,0.0,0.9569945355191257,50,1152,161753,772022,no_split,narrow,individual,1,0.7182269096374512
1,1.0,0.46182709435153224,0.3973267785333685,0.4152971346966361,0.4288451045427918,0.44190420613087794,0.4550181797678743,0.4685538645547583,0.4840352954873607,0.5049001627976938,0.5344965748738618,0.8231850799470191,0.923010752688172,0.4443405464495611,0.0,0.9569945355191257,50,1152,161753,772022,no_split,narrow,individual,1,0.7182269096374512
0,0.0,0.4401348127839458,0.3694554452547699,0.3881826418651649,0.4028918771029147,0.41643637680669854,0.4297852765738019,0.4440043216448835,0.4600861695356739,0.483427316187019,0.5206056567477241,0.986872650865299,0.9961855670103092,0.459318256870606,0.0,0.9882978723404255,50,1152,337788,772022,no_split,narrow,individual,1,0.7150909900665283
1,1.0,0.4797665434245185,0.3888410727491506,0.4137752096940755,0.43164318914252015,0.4489513061047011,0.46681961758868534,0.4861929475674463,0.5099936130194889,0.5397432555179911,0.5865489347774142,1.0067664389117597,0.9798901098901099,0.459318256870606,0.0,0.9882978723404255,50,1152,337788,772022,no_split,narrow,individual,1,0.7150909900665283
