,congruency,mean_rt,qu10_rt,qu20_rt,qu30_rt,qu40_rt,qu50_rt,qu60_rt,qu70_rt,qu80_rt,qu90_rt,qu100_rt,mean_acc,mean_rt_overall,nonconvergent_trials,accuracy_overall,n_posterior_draws,condition,id,slurm_id,split,spacing,estimation_level,number_parts,time_post_sampling_sec
0,0.0,0.4188462217123446,0.3343642641428234,0.35359104439602346,0.3690052421246607,0.38386143259265415,0.4003830287133928,0.419960123369474,0.44464914486886137,0.4764193034934537,0.5280488695822567,1.0283521784743916,0.9815789473684211,0.42683956381404986,0.0,0.9565608465608466,50,516,1108,772094,no_split,wide,individual,1,0.737412691116333
1,1.0,0.43491794147002855,0.3530976762172954,0.3748924815173456,0.39178047443469743,0.4070793028315356,0.423412143225787,0.4407562544513773,0.46116528625607767,0.48675107215671154,0.5297439310223591,0.9244630890082556,0.9312765957446808,0.42683956381404986,0.0,0.9565608465608466,50,516,1108,772094,no_split,wide,individual,1,0.737412691116333
0,0.0,0.43778036053788855,0.35289556787611165,0.37356630101001326,0.39034131721965726,0.40592159125557864,0.42366213013823817,0.44078971677510703,0.46110391251550226,0.49239168814301976,0.5415389882906007,1.2763568808569272,0.9684656084656085,0.44872645760389024,0.0,0.9461578947368421,50,516,1507,772094,no_split,wide,individual,1,0.7150888442993164
1,1.0,0.4595579358524469,0.36223014821944816,0.3867734630271882,0.40667508658289075,0.4258629828141106,0.44506443602573253,0.46648041011941604,0.4929167741879236,0.5248981324970995,0.5743296452910439,1.1010826469326305,0.9240837696335078,0.44872645760389024,0.0,0.9461578947368421,50,516,1507,772094,no_split,wide,individual,1,0.7150888442993164
0,0.0,0.4463492938865961,0.3511783908238704,0.3772432486216699,0.3975068285463521,0.4147577997338129,0.4333899979840391,0.4529095461299212,0.4755896814820098,0.5048988558089669,0.5559130757898234,1.0622111478107907,0.9865263157894737,0.4619171836196044,0.0,0.9735958005249343,50,516,1538,772094,no_split,wide,individual,1,0.7171635627746582
1,1.0,0.4774035660765236,0.3688926157104926,0.40087041153667025,0.42507477414114114,0.4469937724007992,0.4678641560098856,0.48978811826757085,0.5155462986379474,0.5477307667733531,0.5980509447567174,0.9974413185838802,0.9607329842931938,0.4619171836196044,0.0,0.9735958005249343,50,516,1538,772094,no_split,wide,individual,1,0.7171635627746582
0,0.0,0.45996538735864373,0.3670199432378968,0.39090741074167307,0.41083313051052367,0.4280073451757455,0.445541333395867,0.46515053953212065,0.48806156469019213,0.5200077187549886,0.5715102365308214,1.135563757208081,0.9834782608695652,0.4688263857286997,0.0,0.9718918918918918,50,516,1582,772094,no_split,wide,individual,1,0.7156624794006348
1,1.0,0.47759210454638956,0.38175191877628845,0.40730523790345785,0.42794244203608006,0.44643303815798097,0.4652531648759769,0.48536501039768315,0.5099552590427584,0.540896032683049,0.5890722595284731,1.015502230257901,0.9604301075268817,0.4688263857286997,0.0,0.9718918918918918,50,516,1582,772094,no_split,wide,individual,1,0.7156624794006348
0,0.0,0.43370255074859265,0.35514216593119446,0.37493282649272036,0.3900475437908012,0.40419839000882124,0.41892403046017346,0.4353816265073637,0.4557069218796958,0.48387933268294436,0.5302382715913965,0.9926967095603896,0.9693193717277487,0.44820259875978574,0.0,0.9333681462140992,50,516,1583,772094,no_split,wide,individual,1,0.7192800045013428
1,1.0,0.4626271256875873,0.36717909658545433,0.3929902161127375,0.4129137674974615,0.4321517101593585,0.45131125669498906,0.4715541603507737,0.4953491989540176,0.5235138956970529,0.5714009107086778,1.002450703976705,0.8976041666666666,0.44820259875978574,0.0,0.9333681462140992,50,516,1583,772094,no_split,wide,individual,1,0.7192800045013428
0,0.0,0.5625426163853868,0.40042939090962376,0.43565338266726417,0.4641855203886067,0.4918192269489778,0.523941540897122,0.5618579872716193,0.6062554169595762,0.6708822064614756,0.7742858022024146,1.6856069232415103,0.9685875706214689,0.5734177492748116,0.0,0.9528571428571428,50,516,1597,772094,no_split,wide,individual,1,0.715390682220459
1,1.0,0.5837113242557112,0.41595416878185937,0.45655924435224227,0.48966917771123564,0.5223432818878974,0.5564008803917744,0.5935584318921534,0.6378348034106691,0.6954224868482599,0.7842443739357197,1.5180760512652964,0.9379679144385027,0.5734177492748116,0.0,0.9528571428571428,50,516,1597,772094,no_split,wide,individual,1,0.715390682220459
0,0.0,0.4030070654898251,0.33266089745552224,0.3528394278853247,0.3686870325571117,0.3831815810968001,0.3967570218924399,0.4111492275612437,0.42736447283470447,0.4480120463671105,0.4803826796873118,0.8821831418130107,0.9926315789473684,0.4185289010548442,0.0,0.9798944591029024,50,516,1601,772094,no_split,wide,individual,1,0.7158174514770508
1,1.0,0.43413286273396384,0.3486798544395309,0.3730983295831124,0.39202807811727475,0.40921663367461614,0.427715724297313,0.44575275007834736,0.46636287357365835,0.4905842386986896,0.5279928566142403,0.8096662367572558,0.9670899470899471,0.4185289010548442,0.0,0.9798944591029024,50,516,1601,772094,no_split,wide,individual,1,0.7158174514770508
0,0.0,0.47854983953540087,0.3433368347146306,0.3742911298536316,0.3989330538246529,0.4232991313709844,0.4498243408854673,0.47926012922671835,0.5159076030910693,0.566261767439181,0.6526707124810696,1.4474384659315054,0.9795789473684211,0.49374742366299007,0.0,0.9624736842105264,50,516,1614,772094,no_split,wide,individual,1,0.7210466861724854
1,1.0,0.5089450077905793,0.36195737680865264,0.39796674185551917,0.4283500015026544,0.4565856106135077,0.4876356937967995,0.5183669823835098,0.556941524203131,0.6038579309449217,0.6838798865619407,1.5032915571458578,0.9453684210526315,0.49374742366299007,0.0,0.9624736842105264,50,516,1614,772094,no_split,wide,individual,1,0.7210466861724854
0,0.0,0.4259151173808534,0.3717323897057271,0.3874210192140052,0.40007479673838536,0.4109650905337989,0.4217289378420557,0.4329628098688177,0.4452039453244013,0.4609464380877441,0.4859821934446128,0.6635716510340774,0.9965263157894737,0.4365531596218521,0.0,0.9909186351706036,50,516,161753,772094,no_split,wide,individual,1,0.717200517654419
1,1.0,0.4471355053066153,0.3816330326325098,0.4014368080493643,0.416211215667278,0.42981045654679695,0.44286914633224966,0.4559940488908399,0.4713575206485197,0.490101932569083,0.5185313511260599,0.8017905509221704,0.9853403141361257,0.4365531596218521,0.0,0.9909186351706036,50,516,161753,772094,no_split,wide,individual,1,0.717200517654419
0,0.0,0.46489103553245864,0.365795156197585,0.38865838536473096,0.40792236579792035,0.4267611738476236,0.4454595128964811,0.4666417909557312,0.4946111327072382,0.5297392316626425,0.5894809045596899,1.126425317138135,0.9821276595744681,0.4756422470614304,0.0,0.9668601583113456,50,516,1638,772094,no_split,wide,individual,1,0.7172806262969971
1,1.0,0.48622459139361207,0.38297426571627746,0.4100636885803978,0.4315693561699049,0.4517194327186925,0.47238145624192274,0.4943433638746165,0.5201878857701516,0.5539555390295449,0.6068676463662168,1.1093938487130601,0.9518324607329843,0.4756422470614304,0.0,0.9668601583113456,50,516,1638,772094,no_split,wide,individual,1,0.7172806262969971
0,0.0,0.39359002134999505,0.32491392486536697,0.3445656080523374,0.35940319802981974,0.3716316572875247,0.3841909898009256,0.398022874778202,0.4143938470453785,0.43655746643315646,0.47349484056326774,0.9894940965418768,0.9848421052631579,0.4072780878153365,0.0,0.9620052770448548,50,516,1657,772094,no_split,wide,individual,1,0.7185943126678467
1,1.0,0.42103857791276966,0.33846364751352337,0.3609707784729281,0.3794114002923762,0.3955668610107288,0.41297186108512407,0.42951990815050317,0.4498586460028425,0.4749669866323732,0.5150321364566132,0.9711950380556443,0.939047619047619,0.4072780878153365,0.0,0.9620052770448548,50,516,1657,772094,no_split,wide,individual,1,0.7185943126678467
0,0.0,0.4598926324901918,0.3712592180660622,0.3909881055238997,0.4091011756345104,0.4252032945590018,0.4426871953209567,0.461983889139923,0.4855615990382987,0.517656622668896,0.5696328535897737,1.0776527192503322,0.9898936170212767,0.47586232224382546,0.0,0.9737566137566137,50,516,1663,772094,no_split,wide,individual,1,0.71785569190979
1,1.0,0.49166391000005255,0.388689660185317,0.41535547345444906,0.43834259651865853,0.4590474048925105,0.4796931160265121,0.5012917341574373,0.5264010654985124,0.5584736798663105,0.6098928706444435,1.063978846616141,0.9577894736842105,0.47586232224382546,0.0,0.9737566137566137,50,516,1663,772094,no_split,wide,individual,1,0.71785569190979
0,0.0,0.5047309785872126,0.39261149368723497,0.42169169239904836,0.4447889897147464,0.46550516223284455,0.48638493672310545,0.508058936898463,0.5364751178867666,0.5754753823548729,0.6414271903191027,1.3141398927808363,0.973010752688172,0.5181742399604151,0.0,0.9535120643431635,50,516,1761,772094,no_split,wide,individual,1,0.7216963768005371
1,1.0,0.5315456122353651,0.4085075422443649,0.4413506837345993,0.4671393708145377,0.4918716548498514,0.5163523684029271,0.5431321148650089,0.5729272899199338,0.611218891480917,0.6730290063945469,1.2517539810285228,0.9341176470588235,0.5181742399604151,0.0,0.9535120643431635,50,516,1761,772094,no_split,wide,individual,1,0.7216963768005371
0,0.0,0.440433462524428,0.338272327537799,0.364818517606983,0.3852576633556012,0.4037890005295281,0.4227115913266055,0.44432704584462873,0.4704835369269972,0.5048954985290576,0.5635101434188361,1.2565024555661992,0.9624083769633508,0.45043197761625203,0.0,0.9307329842931937,50,516,1768,772094,no_split,wide,individual,1,0.7215392589569092
1,1.0,0.4604304927080762,0.3518753477250044,0.3810154300011813,0.4026694897081711,0.4244632300352015,0.4463436344540348,0.46849377510411677,0.49472722236651523,0.5303955715203003,0.5871953783184439,1.164372136682622,0.8990575916230367,0.45043197761625203,0.0,0.9307329842931937,50,516,1768,772094,no_split,wide,individual,1,0.7215392589569092
0,0.0,0.37354334647545395,0.30408890050204856,0.32387681363892096,0.3385842418686108,0.35202183017222904,0.3649595423159231,0.3784739650577851,0.3950011970769212,0.41683318781229534,0.4525887381473911,0.8463386130067182,0.963404255319149,0.3840445170436066,0.0,0.9395744680851064,50,516,1813,772094,no_split,wide,individual,1,0.7125780582427979
1,1.0,0.3945456876117593,0.31530463488963995,0.33668171772227684,0.3534929162872915,0.36916394080965714,0.3842958221184366,0.4011004062554901,0.4201002719556709,0.4465099037500144,0.48767332480960635,0.934166323799419,0.9157446808510639,0.3840445170436066,0.0,0.9395744680851064,50,516,1813,772094,no_split,wide,individual,1,0.7125780582427979
0,0.0,0.38645509314843374,0.311151437407788,0.3296133636487748,0.3451277046368919,0.3593009156604334,0.37441578289837546,0.391222997379913,0.40903090010983145,0.436392113856895,0.4760287450740045,0.8176860750020032,0.988421052631579,0.3975980399026116,0.0,0.9716010498687664,50,516,1821,772094,no_split,wide,individual,1,0.7116634845733643
1,1.0,0.4086826466214273,0.3239568316129191,0.3475108656101136,0.3666104842129789,0.382889785363627,0.3993419050815811,0.4166782542570536,0.43721448937175716,0.4635809978230833,0.5038135241517089,0.9118956617446049,0.954869109947644,0.3975980399026116,0.0,0.9716010498687664,50,516,1821,772094,no_split,wide,individual,1,0.7116634845733643
0,0.0,0.4403153691624768,0.34964046723875253,0.37286307217689024,0.3909960493431289,0.4075150434196194,0.4256966758228842,0.44480902384893434,0.4677133655691903,0.4992481792395001,0.5481077590641681,1.0604193360332448,0.9852356020942409,0.4487279791769499,0.0,0.9779787234042553,50,516,275,772094,no_split,wide,individual,1,0.7150201797485352
1,1.0,0.45741343059729767,0.3593207066088388,0.38455529674608346,0.40588988773104984,0.42514193185093013,0.44400380064397943,0.4644508251532173,0.48935128685055435,0.5204209467416653,0.5718022320981025,1.1113539996262312,0.9704864864864865,0.4487279791769499,0.0,0.9779787234042553,50,516,275,772094,no_split,wide,individual,1,0.7150201797485352
0,0.0,0.37489515323283756,0.30646112602410797,0.3218742443241733,0.3348732277429369,0.34754591220304953,0.3606957047713245,0.37538465726520165,0.39358348772904067,0.41815027037985847,0.45951183766662707,1.0921737338463042,0.9845744680851064,0.3886529159483579,0.0,0.9662599469496022,50,516,3286,772094,no_split,wide,individual,1,0.7132217884063721
1,1.0,0.4023378862685581,0.3167102734916435,0.33806721468925055,0.35621790719656066,0.3731622619245962,0.3906065756791124,0.40855705017348626,0.4302558361712658,0.4588313518293407,0.5021764738683326,0.9786679789917959,0.948042328042328,0.3886529159483579,0.0,0.9662599469496022,50,516,3286,772094,no_split,wide,individual,1,0.7132217884063721
0,0.0,0.4493720413237146,0.35550098530526814,0.3791974565872681,0.3978317941825522,0.4151592922436516,0.4335637110420514,0.45408473355681167,0.47798348346619246,0.509490742231234,0.5604498367357328,1.137746570388147,0.9864550264550265,0.4648789626523228,0.0,0.9725065963060686,50,516,3292,772094,no_split,wide,individual,1,0.7151820659637451
1,1.0,0.4803042686055174,0.37356293510052335,0.40160803293789754,0.42480033180079924,0.44714949482048105,0.4690013176534322,0.4914162916995089,0.5165255491406049,0.5501126099970425,0.604228037540987,1.0454097055803067,0.9586315789473684,0.4648789626523228,0.0,0.9725065963060686,50,516,3292,772094,no_split,wide,individual,1,0.7151820659637451
0,0.0,0.44419154704299746,0.3658106238360491,0.38735907834650823,0.4046124446464743,0.42018645221880985,0.4358164691516573,0.45193053462844773,0.47045161358914783,0.49520591105976697,0.5337514438100719,0.896019091779186,0.9925263157894737,0.4553450824631275,0.0,0.9860367454068242,50,516,337788,772094,no_split,wide,individual,1,0.7148797512054443
1,1.0,0.4664402224098536,0.3780925307575892,0.4035165457891774,0.42305526779101504,0.44040426315639836,0.45821193032137164,0.4772893460287159,0.4982171591769897,0.5252935681722705,0.5646181818868534,1.0072182076109901,0.9795811518324608,0.4553450824631275,0.0,0.9860367454068242,50,516,337788,772094,no_split,wide,individual,1,0.7148797512054443
0,0.0,0.4022749553715599,0.3232041029808341,0.3420543681908887,0.35691769250254546,0.3710646443965822,0.3863539048091914,0.4026127841409043,0.42324993951204176,0.45106707706234334,0.5011350849911878,0.9953813818991143,0.9850267379679144,0.42107428278541026,0.0,0.9651612903225807,50,516,3487,772094,no_split,wide,individual,1,0.7187690734863281
1,1.0,0.44007684617130227,0.3406850349329317,0.3658798027891031,0.3879142883036802,0.40792255612093703,0.42738563958636944,0.4490683111178663,0.47421856346487035,0.5049722563990114,0.5552566623504362,0.9936476594061381,0.9450810810810811,0.42107428278541026,0.0,0.9651612903225807,50,516,3487,772094,no_split,wide,individual,1,0.7187690734863281
0,0.0,0.40191675294712365,0.34167243415372817,0.3594686788930435,0.37267337880454166,0.38451659947271255,0.3959631648814457,0.40860163229832674,0.42229099981807483,0.4399229809109697,0.46877546506165385,0.7353441920821119,0.9881675392670157,0.4130553711278965,0.0,0.9744444444444444,50,516,3580,772094,no_split,wide,individual,1,0.7173612117767334
1,1.0,0.4244322485210922,0.3534591955671138,0.37420966101791986,0.389717043431337,0.40387992182728066,0.41796846808822036,0.4331093345121702,0.4501971211567086,0.4713178147445548,0.5034265089264106,0.8111861971352774,0.960427807486631,0.4130553711278965,0.0,0.9744444444444444,50,516,3580,772094,no_split,wide,individual,1,0.7173612117767334
0,0.0,0.4633903421558285,0.36330716162310206,0.3899674821768406,0.4094732853278985,0.42654472647409164,0.44670291139700097,0.46599096306598253,0.4904386011252881,0.5237322571237059,0.5858450872712231,1.3434724402554101,0.9695604395604396,0.478062232658729,0.0,0.9288397790055248,50,516,3625,772094,no_split,wide,individual,1,0.7150611877441406
1,1.0,0.49289714416721725,0.3819986903923036,0.4105405678647339,0.4350406310388791,0.4581366759245042,0.48064503587017227,0.5042452610591746,0.5304535128993028,0.5668310531029747,0.6178627999004421,1.1638472956962005,0.8876666666666667,0.478062232658729,0.0,0.9288397790055248,50,516,3625,772094,no_split,wide,individual,1,0.7150611877441406
0,0.0,0.5386057427974841,0.4254665812645674,0.4541741546039517,0.4777236936219317,0.49975158512854295,0.5234272851503238,0.5479851424869097,0.5773127769562966,0.6153064183218417,0.6732997579952433,1.2755116781346512,0.9961256544502618,0.5535735431905557,0.0,0.9898162729658793,50,516,3754,772094,no_split,wide,individual,1,0.7190086841583252
1,1.0,0.5686201214804328,0.44908377794675625,0.483284243432456,0.5098726210427965,0.5335087354367409,0.5570009862421126,0.5829232611371853,0.6114968002049505,0.6492925242056949,0.7017731574050531,1.2205069792671797,0.9834736842105263,0.5535735431905557,0.0,0.9898162729658793,50,516,3754,772094,no_split,wide,individual,1,0.7190086841583252
0,0.0,0.40880172933991193,0.3353958452168061,0.35491897192076105,0.37072991910002406,0.38457086899598014,0.39830403364461087,0.413406783655443,0.4309136665580311,0.45571905694630466,0.49553401597361824,1.0103207720747158,0.9796825396825397,0.41802326035245163,0.0,0.9630606860158312,50,516,3910,772094,no_split,wide,individual,1,0.7402400970458984
1,1.0,0.42719625699124103,0.3433522912339523,0.3656759153498533,0.38399963751000576,0.40062017737727024,0.41744927769816165,0.43585950570483206,0.45654091733439084,0.48341735590686485,0.5242749611885118,0.900916542215884,0.9465263157894737,0.41802326035245163,0.0,0.9630606860158312,50,516,3910,772094,no_split,wide,individual,1,0.7402400970458984
0,0.0,0.403834099188969,0.3349262031694283,0.3509747022111755,0.3638758555240966,0.37715039188792127,0.39148111601284213,0.4068883336976437,0.4257089180008511,0.45097658306703486,0.49108212732913786,0.8655979515318828,0.9903157894736843,0.4115113709927751,0.0,0.9665963060686016,50,516,4222,772094,no_split,wide,individual,1,0.731945276260376
1,1.0,0.41922926328231574,0.3520561078505411,0.37178237879152337,0.38566618354036747,0.39766940818707347,0.41102691577471634,0.42466671778953813,0.4412146984616901,0.4618777128019247,0.4959760065367779,0.8092878943242526,0.9427513227513228,0.4115113709927751,0.0,0.9665963060686016,50,516,4222,772094,no_split,wide,individual,1,0.731945276260376
0,0.0,0.44800457105836805,0.34399633284942194,0.367319960547942,0.3868674872632942,0.4052303401180228,0.4241909884335427,0.44511665966117575,0.4732927920193172,0.5126791346310243,0.5853313717291952,1.2960524487331209,0.959047619047619,0.4614553032214961,0.0,0.9113756613756614,50,516,4264,772094,no_split,wide,individual,1,0.7359488010406494
1,1.0,0.4749060353846241,0.3598114225668066,0.38709016661496803,0.41097043188763593,0.43456909078154665,0.4569755798204223,0.4814135364568298,0.5108855704486583,0.5498995199158292,0.6123685350190204,1.2137359661383342,0.8637037037037038,0.4614553032214961,0.0,0.9113756613756614,50,516,4264,772094,no_split,wide,individual,1,0.7359488010406494
0,0.0,0.4247708976053324,0.3664353048394681,0.38198332014616126,0.39383384177564973,0.40491458185263146,0.4162705327885871,0.42818009532042195,0.4426070914592765,0.4621730162477902,0.4927734639468252,0.8562851553179424,0.9888297872340426,0.43433720492138506,0.0,0.9749866666666667,50,516,5281,772094,no_split,wide,individual,1,0.7189271450042725
1,1.0,0.44395466896105307,0.37554489565751475,0.39322177239980405,0.4076481794820698,0.42128622616333905,0.43556347258019845,0.45064519354928395,0.46715270128134073,0.48903415052370336,0.5225495128352138,0.9626072951021153,0.9610695187165775,0.43433720492138506,0.0,0.9749866666666667,50,516,5281,772094,no_split,wide,individual,1,0.7189271450042725
0,0.0,0.45682076279973344,0.36837757970701585,0.3914503346188327,0.4098017373291214,0.42589790547006073,0.4441331053038288,0.4625740611542929,0.48355604333138685,0.5125585894940288,0.5627422714302962,1.1118795041438263,0.9943915343915344,0.47196504678948287,0.0,0.9870933333333334,50,516,5332,772094,no_split,wide,individual,1,0.7197027206420898
1,1.0,0.4873535934242282,0.38643769934581845,0.4146217112238457,0.4369156961682603,0.4577564769256567,0.47708566868453994,0.49797172094503483,0.5226689480304887,0.5538493451583981,0.5996028176815318,1.1431427393250282,0.9796774193548388,0.47196504678948287,0.0,0.9870933333333334,50,516,5332,772094,no_split,wide,individual,1,0.7197027206420898
0,0.0,0.43878844149308815,0.3552555343228357,0.37783907029536734,0.3959044090471481,0.4104705265192938,0.42706736900595776,0.4438397923081676,0.4620685050359563,0.48936966660056636,0.5344896119482271,1.0492328447037667,0.9818947368421053,0.45409650277921604,0.0,0.9568865435356201,50,516,5575,772094,no_split,wide,individual,1,0.7196500301361084
1,1.0,0.469485559098604,0.3711341863262425,0.398182274997772,0.419974868708257,0.4391236290821817,0.4592142849258214,0.4797391502370582,0.5042413522108931,0.5340393124327234,0.57891891319035,1.0668545332090529,0.9317460317460318,0.45409650277921604,0.0,0.9568865435356201,50,516,5575,772094,no_split,wide,individual,1,0.7196500301361084
0,0.0,0.43835895894089866,0.35424574592121144,0.3752489710975305,0.39215065872962723,0.40724759130147004,0.4224915082329568,0.4400309504793408,0.46223566178971165,0.4907647276032587,0.53898387696417,1.1182782542909862,0.9637158469945355,0.44745623562825587,0.0,0.9306738544474393,50,516,5731,772094,no_split,wide,individual,1,0.7185733318328857
1,1.0,0.456311563467545,0.3666985454115681,0.3896067444202444,0.4082483036929006,0.4247337228215501,0.44312860354927885,0.4631476022165751,0.4852827052405119,0.5126651123025137,0.5636918686295489,1.0679771927827582,0.8985106382978724,0.44745623562825587,0.0,0.9306738544474393,50,516,5731,772094,no_split,wide,individual,1,0.7185733318328857
0,0.0,0.42306430524046384,0.3481459534092444,0.3707701075921122,0.3880351956030422,0.40266961738138823,0.4171320147091331,0.43188173561010296,0.44965159539603833,0.4702338309353574,0.5041522621606155,0.8187731677528364,0.9931914893617021,0.44067096520276083,0.0,0.9741644562334217,50,516,5761,772094,no_split,wide,individual,1,0.7177677154541016
1,1.0,0.4581844682340406,0.36805515338323164,0.39347251140934364,0.4152546829712379,0.43383263077319817,0.4526313931948197,0.47068009951222517,0.4911138220639893,0.518025341757392,0.556639110426974,0.9124962030294917,0.9552380952380952,0.44067096520276083,0.0,0.9741644562334217,50,516,5761,772094,no_split,wide,individual,1,0.7177677154541016
0,0.0,0.4178278613486814,0.32687496726753545,0.35154109906708686,0.3695036544083275,0.38638508324950505,0.40337689112675656,0.42140976540691855,0.4435244439975699,0.47531266686544366,0.5252302323130577,1.0792905441152914,0.9263541666666667,0.4246374281833443,0.0,0.8958854166666667,50,516,5803,772094,no_split,wide,individual,1,0.7191152572631836
1,1.0,0.4314469950180074,0.3341347936455454,0.361009037566588,0.3808875466499509,0.40018627950963465,0.41771713051291814,0.43899691988893363,0.46253056792697245,0.4933149966482913,0.5459252241297095,1.122133341461201,0.8654166666666666,0.4246374281833443,0.0,0.8958854166666667,50,516,5803,772094,no_split,wide,individual,1,0.7191152572631836
0,0.0,0.49638173243229194,0.3809310238817472,0.40954555474884413,0.43155533586438644,0.4521760408019152,0.4749039759163619,0.4997116460974028,0.5294304915355864,0.5677119013293156,0.6365095606977186,1.3009636562841551,0.9775,0.5128095492561664,0.0,0.9551832460732984,50,516,5815,772094,no_split,wide,individual,1,0.7220709323883057
1,1.0,0.5294102904676609,0.4003083177460922,0.43407031301193133,0.4623370982947443,0.48758954475020727,0.5129342585452694,0.541714485372085,0.573961189794907,0.6161286188818145,0.6789164644976812,1.2836282559127907,0.9326315789473684,0.5128095492561664,0.0,0.9551832460732984,50,516,5815,772094,no_split,wide,individual,1,0.7220709323883057
0,0.0,0.412108620179068,0.34843314570099804,0.3647692705687849,0.37791486452994316,0.3897835479071814,0.40209486942199524,0.4156490417378858,0.4312655285027889,0.45315156121283223,0.4883398270290284,0.8824038048747848,0.9941052631578947,0.42705459271729346,0.0,0.9860846560846561,50,516,6055,772094,no_split,wide,individual,1,0.7210738658905029
1,1.0,0.4421595649633722,0.3637628239657142,0.3846696499564747,0.4017583252166167,0.41818959611176193,0.4338006791068574,0.4513307254317151,0.47030743452519086,0.495042017188522,0.5307596438155752,0.8499365500683322,0.9779787234042553,0.42705459271729346,0.0,0.9860846560846561,50,516,6055,772094,no_split,wide,individual,1,0.7210738658905029
0,0.0,0.4586759857561002,0.34848344245077184,0.37548379376192975,0.39646541918595285,0.4160148377508969,0.43619271537087045,0.4603459869220614,0.4900151038560151,0.5291627368608491,0.5987410729597493,1.324207886023612,0.9711351351351352,0.46912582128550223,0.0,0.9406970509383378,50,516,6109,772094,no_split,wide,individual,1,0.7190062999725342
1,1.0,0.47940890412028614,0.36661705347404866,0.3967044914311435,0.4212485458526232,0.4436134157207837,0.46583451075773546,0.4904956924502738,0.5170568884019775,0.5513918211617216,0.6083479518507308,1.3516119964568947,0.9107446808510639,0.46912582128550223,0.0,0.9406970509383378,50,516,6109,772094,no_split,wide,individual,1,0.7190062999725342
0,0.0,0.3862954846807132,0.32439435413006146,0.3410973154114333,0.3543559037998582,0.36599374659803835,0.378041585775853,0.39063762128153423,0.40573190863720104,0.42534657806445125,0.4574879708735229,0.8348048629936263,0.9895287958115183,0.40264423590147025,0.0,0.9715404699738903,50,516,6214,772094,no_split,wide,individual,1,0.7185637950897217
1,1.0,0.41890783737628595,0.33802887723593694,0.35970951291567543,0.3767999720137182,0.39319984221387116,0.4094641530719507,0.426935660383324,0.44728186527883923,0.4733196798445046,0.511534915881636,0.8340260330256226,0.9536458333333333,0.40264423590147025,0.0,0.9715404699738903,50,516,6214,772094,no_split,wide,individual,1,0.7185637950897217
0,0.0,0.45264821946509937,0.35068526197400346,0.37721470687405845,0.39790070720956067,0.4181600202129831,0.4382702561821639,0.4609958653898846,0.48609444130531365,0.5205038637640873,0.5729902905538541,1.3353554637526455,0.979047619047619,0.45816403436500247,0.0,0.9488359788359788,50,516,6253,772094,no_split,wide,individual,1,0.7197222709655762
1,1.0,0.4636798492649057,0.3641062746005346,0.3934733642947688,0.41560329633985466,0.43481172152269004,0.4532148971475881,0.4731417241662615,0.4970651829892213,0.5265813342744123,0.5734119029061219,1.0500807731356245,0.9186243386243387,0.45816403436500247,0.0,0.9488359788359788,50,516,6253,772094,no_split,wide,individual,1,0.7197222709655762
0,0.0,0.4475921555452773,0.3676466622638458,0.3904449221405189,0.4069612755732317,0.4233384909475821,0.4380482906933211,0.45379172260261175,0.47357981187922105,0.49842036681124874,0.5399085575040897,0.9168943900164828,0.988421052631579,0.4573375384546015,0.0,0.9770078740157481,50,516,6262,772094,no_split,wide,individual,1,0.7214138507843018
1,1.0,0.46703189841675646,0.38019931956274466,0.40509847885844924,0.42436675954826913,0.4418412675773788,0.4597345976280215,0.47796633134161787,0.4977164651380022,0.5244701405470443,0.5647708591408653,0.9399925667188588,0.9656544502617801,0.4573375384546015,0.0,0.9770078740157481,50,516,6262,772094,no_split,wide,individual,1,0.7214138507843018
0,0.0,0.4842543697584966,0.3897357617015577,0.41414944841428414,0.4335074045501775,0.4508092310012996,0.46988137605894986,0.48980601842209287,0.514298659183388,0.546870533116223,0.598339464967616,1.1260063151511581,0.996421052631579,0.5033659740850724,0.0,0.9839473684210527,50,516,6361,772094,no_split,wide,individual,1,0.7196788787841797
1,1.0,0.5224775784116483,0.4184244314170146,0.4485408661868981,0.4719889088910835,0.492770284117709,0.5137518256476269,0.5351335272467913,0.5598247474779968,0.5914942215420723,0.6357952492991522,1.0683336227689701,0.9714736842105263,0.5033659740850724,0.0,0.9839473684210527,50,516,6361,772094,no_split,wide,individual,1,0.7196788787841797
0,0.0,0.4075437391993391,0.33969923403894803,0.3592081209830732,0.3731236583786422,0.3859379864225601,0.3993984747630938,0.413106438417528,0.42997391104848437,0.45082945443263067,0.48398782803258383,0.8589743460185126,0.99,0.4162981511218312,0.0,0.9777308707124011,50,516,6427,772094,no_split,wide,individual,1,0.720184326171875
1,1.0,0.425098882684125,0.3521362490565643,0.37354767995395516,0.38999006291881844,0.4047941331946234,0.4184655003670599,0.4337314188362006,0.4516258491224264,0.4727892310246419,0.5064730940669601,0.774167367358534,0.9653968253968254,0.4162981511218312,0.0,0.9777308707124011,50,516,6427,772094,no_split,wide,individual,1,0.720184326171875
0,0.0,0.45356475156961534,0.3750991137287291,0.39902491317025224,0.41552668946603755,0.4310932666853508,0.44592629371197595,0.46209953603880066,0.479828670249347,0.5029919212248312,0.5394413377814274,1.0426284278233398,0.9782978723404255,0.4622153940041852,0.0,0.9648533333333333,50,516,6583,772094,no_split,wide,individual,1,0.7182629108428955
1,1.0,0.4709122965587261,0.38455675901709824,0.4098866209495072,0.4287186330472503,0.4455759272455987,0.46319523595733925,0.4801646447217235,0.5007549572734072,0.5263424383808939,0.5663672226601231,0.8567570014954181,0.9513368983957219,0.4622153940041852,0.0,0.9648533333333333,50,516,6583,772094,no_split,wide,individual,1,0.7182629108428955
0,0.0,0.43864433299951566,0.3547449219424084,0.3786597634313777,0.3960515259122303,0.4126022200505186,0.4282664371997099,0.4456085095679574,0.46556596559125346,0.4912664908405966,0.5337052405006145,1.01358241408534,0.9760846560846561,0.4517423581421059,0.0,0.9531550802139037,50,516,6634,772094,no_split,wide,individual,1,0.7177250385284424
1,1.0,0.4651235838283197,0.36621489537471247,0.3937952081138542,0.4166162292397947,0.4359168662624101,0.45587038719996137,0.47681352777452735,0.49830501121273807,0.5283626634445956,0.5764293222109017,1.02760046726433,0.9297297297297298,0.4517423581421059,0.0,0.9531550802139037,50,516,6634,772094,no_split,wide,individual,1,0.7177250385284424
0,0.0,0.44748476236305956,0.3696028051317771,0.3907175749575488,0.40750790587628477,0.4225649954456654,0.4374041561194898,0.45381341310662027,0.4737658902513518,0.49838173826832094,0.5373883887079172,0.8496360104384196,0.9888541666666667,0.4563462601677284,0.0,0.9669451697127938,50,516,6844,772094,no_split,wide,individual,1,0.7175836563110352
1,1.0,0.4652541532488614,0.386929854463118,0.4103592737521007,0.427751261341058,0.444169077448435,0.4592601334227404,0.4753795132706149,0.493779394234003,0.5159656305930862,0.549194779926268,0.9229702159482741,0.9449214659685864,0.4563462601677284,0.0,0.9669451697127938,50,516,6844,772094,no_split,wide,individual,1,0.7175836563110352
0,0.0,0.4367926257982731,0.34689510831340625,0.36992177768984197,0.3870494780759916,0.4028543621409994,0.420432983763725,0.43966655203806776,0.4627509141003293,0.49144109350699244,0.5435501807598735,1.3447466820173637,0.9892631578947368,0.459576285462477,0.0,0.9491623036649215,50,516,7624,772094,no_split,wide,individual,1,0.7162716388702393
1,1.0,0.48212261533851214,0.37121249149790264,0.4022797671056655,0.4266414756830993,0.4491373487921394,0.4720783573998538,0.49517478677770976,0.5204282599422798,0.5528039097356602,0.6043181563924843,1.1186268080924373,0.9094791666666666,0.459576285462477,0.0,0.9491623036649215,50,516,7624,772094,no_split,wide,individual,1,0.7162716388702393
0,0.0,0.40584011521032354,0.32988807127929665,0.35071342382277804,0.36622907261636894,0.38064635498151855,0.39514899712895457,0.41064291210094966,0.4285596056289113,0.4537155570573755,0.4960564430849215,0.8181250775321933,0.9803125,0.416622404630281,0.0,0.9545026178010472,50,516,7756,772094,no_split,wide,individual,1,0.7140419483184814
1,1.0,0.42751819183360634,0.34521219634963823,0.3681309642802577,0.38598687176375407,0.4026378174684393,0.41934174929989515,0.4361396601150703,0.4564135415315308,0.4809504994238838,0.5195529924048949,0.9243435912094156,0.9284210526315789,0.416622404630281,0.0,0.9545026178010472,50,516,7756,772094,no_split,wide,individual,1,0.7140419483184814
0,0.0,0.41386262372692983,0.3254394259949614,0.34938397958611717,0.3693036609170549,0.38573356763866107,0.4030198604399413,0.42054988732993204,0.4426572918209326,0.47097658882430804,0.5158272115477922,0.9249883058493431,0.9815957446808511,0.42867142484571746,0.0,0.9464879356568364,50,516,7768,772094,no_split,wide,individual,1,0.7133705615997314
1,1.0,0.44372036868535025,0.34453889026693013,0.37445343592634345,0.39641393260572977,0.4163118066036056,0.43599554439841337,0.4556419402748206,0.4782128590765459,0.5075777332826785,0.5536444122250945,1.0867457106943819,0.9108108108108108,0.42867142484571746,0.0,0.9464879356568364,50,516,7768,772094,no_split,wide,individual,1,0.7133705615997314
0,0.0,0.40265913708021256,0.31284219593064105,0.3358693191655189,0.3544679933780673,0.37117988842373106,0.3880874337297163,0.40678546553765693,0.42900112080628994,0.45896476345680093,0.510487444770662,1.0257837624863047,0.9604188481675393,0.41145452331697346,0.0,0.9227225130890052,50,516,7807,772094,no_split,wide,individual,1,0.7131435871124268
1,1.0,0.4202499095537345,0.3267872948969686,0.3531315144238309,0.37379553573287094,0.3916272793870198,0.40940696204398686,0.4284268702590217,0.45149823450775195,0.47963835810685107,0.5277609713120021,0.9866276957998132,0.8850261780104712,0.41145452331697346,0.0,0.9227225130890052,50,516,7807,772094,no_split,wide,individual,1,0.7131435871124268
0,0.0,0.3946352681205277,0.32122145643867994,0.33759576399137475,0.3521430183477948,0.3659427593326936,0.37956412588786625,0.39462995246407695,0.414744683293353,0.4423459707798668,0.48787491718610315,0.9760016772594733,0.9809375,0.40619126396305255,0.0,0.9569553805774278,50,516,7813,772094,no_split,wide,individual,1,0.7153239250183105
1,1.0,0.4179306883110145,0.33409738273258455,0.35486005775511675,0.37240200924075634,0.39006172085657564,0.40645462476068545,0.4247373786504467,0.44637671534993184,0.47394184103431225,0.5128118717021841,0.9594516009891153,0.9325925925925926,0.40619126396305255,0.0,0.9569553805774278,50,516,7813,772094,no_split,wide,individual,1,0.7153239250183105
0,0.0,0.40689558413694205,0.3478972954794854,0.36558379626784976,0.3792339802581637,0.391128921637927,0.40216835655844996,0.41353938708942956,0.42715408864161264,0.4453222841278331,0.47219936131793083,0.7293246754300524,0.9860732984293193,0.4151586105364203,0.0,0.9767539267015707,50,516,7828,772094,no_split,wide,individual,1,0.7130346298217773
1,1.0,0.4234216369358985,0.3566536191514134,0.3757695804607143,0.39146023837950317,0.40409246382415476,0.4180945717871672,0.4322157217870166,0.4479573805268784,0.46765166683207804,0.4976961502106108,0.7835079792098929,0.967434554973822,0.4151586105364203,0.0,0.9767539267015707,50,516,7828,772094,no_split,wide,individual,1,0.7130346298217773
0,0.0,0.5425066589921137,0.39438801848403593,0.42482094025751904,0.4510839716658905,0.4766927973509995,0.5057537595064605,0.5388393307572981,0.5830263490371007,0.6386743334403988,0.7396677158774481,1.513258663999873,0.9665608465608465,0.558569787277489,0.0,0.9514893617021276,50,516,7840,772094,no_split,wide,individual,1,0.712996244430542
1,1.0,0.5748047137263442,0.4159150039277538,0.4530446847596456,0.4844038874031777,0.5150508988995762,0.5481185829950461,0.5823687326121892,0.6253505533732614,0.6770951448807223,0.7697837210610651,1.5660957199386292,0.9362566844919786,0.558569787277489,0.0,0.9514893617021276,50,516,7840,772094,no_split,wide,individual,1,0.712996244430542
0,0.0,0.45173670797979326,0.36399338509590584,0.3868457736789344,0.40472313232668994,0.42167696637796925,0.4390145393916294,0.4597358824889099,0.48168889035630075,0.5117650186746447,0.5537624591298368,1.229382429803837,0.9986387434554974,0.46586305862362376,0.0,0.993455497382199,50,516,7924,772094,no_split,wide,individual,1,0.7135915756225586
1,1.0,0.47998940926745426,0.39360877687750717,0.41894647560414133,0.4380388905810613,0.45661294108825967,0.4727781578523086,0.49027962518242885,0.5104685391894443,0.5361184062827372,0.5758288781476638,0.9014652935299998,0.9882722513089005,0.46586305862362376,0.0,0.993455497382199,50,516,7924,772094,no_split,wide,individual,1,0.7135915756225586
0,0.0,0.4431965111619552,0.3676077589676324,0.38945823917776984,0.4060125287472858,0.4213049456692707,0.4351270156452739,0.4506724396686273,0.4679422596283003,0.4909100663051595,0.5284401118899038,0.8497895158888261,0.9942857142857143,0.45793781891069013,0.0,0.9848275862068966,50,516,7939,772094,no_split,wide,individual,1,0.7082207202911377
1,1.0,0.47275753787085456,0.38440894556047434,0.410455473283855,0.4303511129385617,0.4484583064878069,0.46489579195158137,0.4833860579577431,0.5044402134253364,0.5301035329896135,0.5690735213533556,0.9013085106624407,0.9753191489361702,0.45793781891069013,0.0,0.9848275862068966,50,516,7939,772094,no_split,wide,individual,1,0.7082207202911377
0,0.0,0.44845971105417937,0.3433018200072181,0.3710979323649854,0.390826495020894,0.4099349669066866,0.4288417892798478,0.45003687347439714,0.4758217630293811,0.5136053944655576,0.5788116712210374,1.1259950015385198,0.9641573033707865,0.46060464642183546,0.0,0.924297520661157,50,516,8026,772094,no_split,wide,individual,1,0.7068915367126465
1,1.0,0.4722900436944992,0.3596072503406829,0.39017097821789776,0.41363594652790153,0.43539976321764423,0.45722807149618416,0.4816048823139636,0.5079840268118277,0.5452297146234311,0.6013645939136248,1.1467759118128722,0.885945945945946,0.46060464642183546,0.0,0.924297520661157,50,516,8026,772094,no_split,wide,individual,1,0.7068915367126465
0,0.0,0.46445824184193035,0.3635112681258336,0.38712134225219286,0.4060309367775542,0.4252494726636741,0.4446356769401195,0.46668829556254016,0.49329707789348126,0.5278158756237603,0.5891568458017266,1.4205161997220221,0.9826315789473684,0.4753540172031994,0.0,0.9682105263157895,50,516,808,772094,no_split,wide,individual,1,0.7055842876434326
1,1.0,0.48624979256446854,0.3810872071902723,0.40902866625913437,0.4305234986053484,0.45124793726667306,0.4721779105653624,0.4942789251702958,0.5201069224301196,0.5541365608371922,0.6078589880203795,1.3157943038139965,0.9537894736842105,0.4753540172031994,0.0,0.9682105263157895,50,516,808,772094,no_split,wide,individual,1,0.7055842876434326
0,0.0,0.43999253888924006,0.3379915243308494,0.3662751963765369,0.3867704966768914,0.40591531943191467,0.42520028030603485,0.4458900769592539,0.4708423526110375,0.5032993427073084,0.5566383561542241,1.1036905912384551,0.9352879581151833,0.4461664084540214,0.0,0.9146736292428198,50,516,8311,772094,no_split,wide,individual,1,0.713970422744751
1,1.0,0.452308122448153,0.34651037417067826,0.374929692975915,0.39711181687019587,0.41682194849404136,0.43696028037051027,0.45988656392673416,0.4866358150257688,0.5213893276370549,0.5773817198955509,1.250735933721462,0.8941666666666667,0.4461664084540214,0.0,0.9146736292428198,50,516,8311,772094,no_split,wide,individual,1,0.713970422744751
0,0.0,0.4502482201352851,0.36903232099041117,0.39003662796748023,0.40676616295926576,0.4225767516182048,0.4374878627946024,0.4547913476127388,0.4746495366075449,0.5020300921042218,0.5461308235625421,0.9713687605713913,0.966875,0.4594708878921762,0.0,0.9413227513227513,50,516,833,772094,no_split,wide,individual,1,0.7062563896179199
1,1.0,0.46899106106058,0.3795631984758168,0.40470354797986974,0.4238905020996314,0.44125414511762634,0.45925428570913907,0.4781657289083503,0.4994166130974769,0.5269602423084199,0.5703739004378883,0.9581430603878464,0.9149462365591398,0.4594708878921762,0.0,0.9413227513227513,50,516,833,772094,no_split,wide,individual,1,0.7062563896179199
0,0.0,0.5581993064457402,0.38475831992389786,0.41980710912654,0.44838737409582036,0.4776445449190644,0.5083080067493961,0.5477630924798568,0.6014982736936484,0.6761365370304236,0.7999640880277414,1.5842896044988848,0.9393478260869565,0.5704655112496609,0.0,0.9032972972972974,50,516,837,772094,no_split,wide,individual,1,0.7030115127563477
1,1.0,0.5825998213782705,0.4082492324701984,0.44800818787256896,0.48246203835055057,0.5160019000076317,0.5501402289871851,0.5882588469773736,0.6341966360501119,0.6972937220108177,0.7987786153691068,1.524560167109554,0.8676344086021506,0.5704655112496609,0.0,0.9032972972972974,50,516,837,772094,no_split,wide,individual,1,0.7030115127563477
0,0.0,0.38395978299995426,0.3164412263323636,0.3360651630936187,0.3504669148075242,0.3641011188031892,0.3772527475698779,0.390636588021222,0.4064065254998244,0.42710204560100956,0.45811873898739763,0.8084600712504422,0.9872251308900524,0.3968677488951714,0.0,0.9697894736842105,50,516,8446,772094,no_split,wide,individual,1,0.7045581340789795
1,1.0,0.40991230702208387,0.331665870788914,0.35550480085025143,0.3731006218117863,0.38839871909081525,0.4036275204812202,0.42027320684935476,0.43833919002286315,0.4616241033710277,0.49494338147892175,0.8241270228703838,0.9521693121693122,0.3968677488951714,0.0,0.9697894736842105,50,516,8446,772094,no_split,wide,individual,1,0.7045581340789795
0,0.0,0.4189713959988031,0.3410860218522892,0.3617322598025452,0.3773587454333324,0.39238270205401027,0.4078796432418718,0.42391828739004367,0.4432057943663213,0.4681243500423925,0.5112100045734393,0.9442944312104323,0.9671957671957672,0.4292997048753142,0.0,0.9468085106382979,50,516,845,772094,no_split,wide,individual,1,0.7040488719940186
1,1.0,0.43973847694836554,0.3503573758966475,0.37474517723331846,0.39326326184794896,0.4102346043499121,0.42848456860003514,0.4473957135028927,0.4699090133621378,0.49945226982500585,0.5440296298680946,1.0550495408216571,0.9262032085561497,0.4292997048753142,0.0,0.9468085106382979,50,516,845,772094,no_split,wide,individual,1,0.7040488719940186
0,0.0,0.479420106624357,0.38580823164791384,0.4092844502881991,0.42827320691299203,0.44648811946042233,0.464531353473277,0.4850654323194993,0.5080699231775869,0.5395211666883043,0.5899952708536266,1.4499864137862843,0.9596858638743455,0.48910347779359464,0.0,0.9398421052631579,50,516,8521,772094,no_split,wide,individual,1,0.7072350978851318
1,1.0,0.49888931849901463,0.3961426186140707,0.42298031953778853,0.44446115453377305,0.4645808092995567,0.4844006521308337,0.5056293509916623,0.5316543943820045,0.5662396782410485,0.6194009452646289,1.1383305006841957,0.9197883597883598,0.48910347779359464,0.0,0.9398421052631579,50,516,8521,772094,no_split,wide,individual,1,0.7072350978851318
0,0.0,0.5563553468284848,0.4170919208158287,0.4480978919326965,0.4755418818499785,0.5023079740374614,0.530537208238197,0.5628522997732431,0.5997598134076498,0.6476679008535137,0.7314826630961729,1.5482587294486247,0.9826086956521739,0.5628194801696226,0.0,0.97,50,516,8704,772094,no_split,wide,individual,1,0.7057046890258789
1,1.0,0.5691460787588213,0.43310802071538435,0.4693855492761721,0.4959364642279821,0.5210825673724804,0.5486338210188422,0.5774245065152587,0.6125978704407806,0.6572491483033742,0.7291604935218251,1.3538839802339555,0.9576595744680851,0.5628194801696226,0.0,0.97,50,516,8704,772094,no_split,wide,individual,1,0.7057046890258789
0,0.0,0.4386435280143808,0.35449244577963396,0.37670679803743456,0.3943687638932729,0.4102911990257067,0.4260144138088037,0.4442781639025425,0.46543695718545697,0.4921260945736907,0.537516005936328,0.9887384927375035,0.9951086956521739,0.45415348885509793,0.0,0.9870684931506849,50,516,8755,772094,no_split,wide,individual,1,0.7054829597473145
1,1.0,0.46992052086997055,0.37560155648183496,0.4022161647524701,0.42322787165913417,0.4419233785405758,0.4609150727142457,0.4812661586651992,0.5036001697116411,0.5313727789808816,0.5745057821662624,1.0379588641319766,0.9788950276243094,0.45415348885509793,0.0,0.9870684931506849,50,516,8755,772094,no_split,wide,individual,1,0.7054829597473145
0,0.0,0.44519925419510015,0.35643031078159465,0.37768421647799644,0.39543464367811587,0.4124855953138069,0.4297445412352421,0.4491909593005111,0.4714945229395227,0.5021668039717271,0.554779202114783,1.024462230657525,0.9761458333333334,0.45516748445687855,0.0,0.9616666666666667,50,516,8785,772094,no_split,wide,individual,1,0.7035489082336426
1,1.0,0.46513571471865695,0.36596800773571414,0.3924004359967271,0.4132459930615039,0.43250041313349874,0.45207160756687104,0.473423286156074,0.4985293243332104,0.5299714845248056,0.5796965410502121,1.1112792369824884,0.9471875,0.45516748445687855,0.0,0.9616666666666667,50,516,8785,772094,no_split,wide,individual,1,0.7035489082336426
0,0.0,0.4098237543212101,0.3232794144270519,0.34663603057663056,0.3635591459590014,0.3786438287379349,0.3945410085008048,0.4122557536801023,0.4338477112554194,0.4636964489140538,0.514277692158346,1.1613793116425617,0.9774603174603175,0.4252174925741976,0.0,0.9550132625994695,50,516,8788,772094,no_split,wide,individual,1,0.7146522998809814
1,1.0,0.44069311241363723,0.3379787039101042,0.3642970232818724,0.3868594848874988,0.40746762041961326,0.4280147655544272,0.44989122081367827,0.47421487244366956,0.5076820833465177,0.5593636130975664,1.0633768728609698,0.9324468085106383,0.4252174925741976,0.0,0.9550132625994695,50,516,8788,772094,no_split,wide,individual,1,0.7146522998809814
0,0.0,0.45754687612693345,0.3511132105047072,0.3744435024578209,0.3933997273376104,0.41283111976778575,0.4327297714341896,0.45502238849547744,0.48361126524299974,0.524452567594889,0.5917839181703793,1.2803382164210784,0.9741798941798941,0.47772143080939994,0.0,0.9528723404255319,50,516,916,772094,no_split,wide,individual,1,0.707852840423584
1,1.0,0.49811175613018155,0.3649209493917436,0.3945997725560828,0.42237830344740274,0.4497997774440152,0.4776556780205047,0.5072849458699019,0.5446726854785704,0.5901981662369206,0.6588641368505841,1.419046524625827,0.931336898395722,0.47772143080939994,0.0,0.9528723404255319,50,516,916,772094,no_split,wide,individual,1,0.707852840423584
0,0.0,0.40649629882251126,0.3304808806812891,0.35032453952375986,0.3643543921177136,0.37822933061639824,0.39253568845711195,0.40855366284855804,0.42766816277023,0.45350184936434335,0.49895173076240745,0.9499029983580226,0.9738947368421053,0.4187162109154459,0.0,0.9418897637795276,50,516,985,772094,no_split,wide,individual,1,0.703904390335083
1,1.0,0.43087214441103544,0.3415405978388084,0.36526797384665743,0.3838248781655841,0.40162540025132587,0.41874367663426826,0.43928920162076573,0.4611062101280776,0.48920596291486074,0.5332616730978544,0.9774582940060281,0.9100523560209424,0.4187162109154459,0.0,0.9418897637795276,50,516,985,772094,no_split,wide,individual,1,0.703904390335083
0,0.0,0.44067571807978756,0.3538284365166512,0.375110317915767,0.3914260778260783,0.4074491431800242,0.4238653118585668,0.44216871751683723,0.46311925849566343,0.49300265324155473,0.5454184194221326,1.0629287422945735,0.9909268292682927,0.46450762782895827,0.0,0.9706532663316583,50,516,275,772094,no_split,narrow,individual,1,0.706627368927002
1,1.0,0.4898213143500983,0.37732808073001567,0.40852701752618054,0.43194847815083665,0.4554537684052755,0.4779846774942805,0.5031588867623265,0.5294174842529088,0.5640102355042337,0.6164289919287763,1.0568156609111679,0.949119170984456,0.46450762782895827,0.0,0.9706532663316583,50,516,275,772094,no_split,narrow,individual,1,0.706627368927002
0,0.0,0.4664100305900741,0.37089219817221947,0.3934879254776848,0.41138145742189114,0.42921115457699344,0.44877840404771724,0.47051196131830547,0.4960550161266664,0.5315863721747325,0.5864003323379755,1.1443641192272764,0.9898095238095238,0.4768980498532405,0.0,0.9716161616161616,50,516,808,772094,no_split,narrow,individual,1,0.7025020122528076
1,1.0,0.48873936192455736,0.39378862521280517,0.4204253826049217,0.4405454352878589,0.4602776684646888,0.4802910198499018,0.4991606591114568,0.5197634370455196,0.5482988963974932,0.5947230670045359,1.0571782567016257,0.9510752688172043,0.4768980498532405,0.0,0.9716161616161616,50,516,808,772094,no_split,narrow,individual,1,0.7025020122528076
0,0.0,0.4559373475506687,0.37299037025576987,0.39745979999108205,0.41403512614781207,0.42946669136423177,0.4445601048924629,0.46128179273386916,0.48072993107022455,0.5058350533887744,0.5478702298555529,1.040863284962219,0.9732,0.47032028588577096,0.0,0.9387733333333333,50,516,833,772094,no_split,narrow,individual,1,0.7037076950073242
1,1.0,0.4867579296973164,0.3885094513931868,0.41550674179428,0.43708436867688094,0.456872214877861,0.4750525630482577,0.4961775549300374,0.5205352849364162,0.5507239476502134,0.5995997151266298,1.0720304428286924,0.8994285714285715,0.47032028588577096,0.0,0.9387733333333333,50,516,833,772094,no_split,narrow,individual,1,0.7037076950073242
0,0.0,0.5867863784018461,0.38960291748164466,0.4270686860780674,0.4594188593117717,0.49363377668517294,0.5318388532148827,0.5784589351117038,0.6344217498847401,0.7218922049306996,0.8635332083370245,1.6186069929832019,0.9372774869109948,0.6016977403733591,0.0,0.9006382978723404,50,516,837,772094,no_split,narrow,individual,1,0.7050044536590576
1,1.0,0.6170927140844885,0.41198143295513256,0.45941926451627324,0.49960004491455723,0.5399819633058994,0.5820393665219027,0.6270238893599036,0.6780270202402344,0.7485626597342563,0.8692421576853214,1.6015179072625438,0.8628108108108108,0.6016977403733591,0.0,0.9006382978723404,50,516,837,772094,no_split,narrow,individual,1,0.7050044536590576
0,0.0,0.41948180081395947,0.34588638456555404,0.3667459422340622,0.38201104461413965,0.3961309203920465,0.4103723285473621,0.4243709519244865,0.4423046247931864,0.46485284819519046,0.5019126002973406,1.2714537749754071,0.9727083333333333,0.4311647447077175,0.0,0.9310695187165775,50,516,845,772094,no_split,narrow,individual,1,0.702284574508667
1,1.0,0.44348960859563796,0.3607189972875624,0.38407625911344573,0.40165952769567825,0.4187528423794614,0.4352039635455443,0.4530641571521528,0.4723999642967986,0.4978012184610256,0.5367026299272721,1.1201268250905279,0.8871428571428571,0.4311647447077175,0.0,0.9310695187165775,50,516,845,772094,no_split,narrow,individual,1,0.702284574508667
0,0.0,0.4600162618953431,0.35568953429984373,0.37911625583165,0.3972354199054524,0.4158558762651575,0.4342441122288925,0.4555098029620949,0.4837942085776382,0.5243871025700116,0.5982560949183632,1.583685992947034,0.9798882681564246,0.4859994634997286,0.0,0.9418579234972677,50,516,916,772094,no_split,narrow,individual,1,0.7051799297332764
1,1.0,0.5108710842868142,0.37870386283586005,0.4095012559750944,0.43798124144577333,0.4655028747570458,0.4929144620886265,0.5212591027276268,0.5531546298786644,0.5968236105274909,0.6648335121237825,1.4379013896457598,0.9054545454545454,0.4859994634997286,0.0,0.9418579234972677,50,516,916,772094,no_split,narrow,individual,1,0.7051799297332764
0,0.0,0.4047033299209671,0.3341726865430718,0.35397570785435434,0.36823329644839387,0.38118155600674297,0.39484145455507047,0.409058212442546,0.4259650945935695,0.4485664838660316,0.48583855574906876,0.8791358397811365,0.972090395480226,0.42410047208956403,0.0,0.9192953929539296,50,516,985,772094,no_split,narrow,individual,1,0.7064783573150635
1,1.0,0.44198221252623937,0.3498321816842216,0.3729425771303668,0.39321342629922684,0.41187923201009785,0.4299413654854781,0.45085315865044784,0.47418762686571636,0.5031852166567861,0.5467585012584916,0.9590691238589105,0.870625,0.42410047208956403,0.0,0.9192953929539296,50,516,985,772094,no_split,narrow,individual,1,0.7064783573150635
0,0.0,0.4004629075612975,0.33222014447822973,0.3489110991422722,0.3626504370425225,0.375745099133662,0.38796740866366886,0.4022828786041775,0.4186114204827194,0.4405491391431439,0.4796559236110938,0.9617558548071683,0.9827272727272728,0.4270242701062657,0.0,0.9146315789473685,50,516,1108,772094,no_split,narrow,individual,1,0.707726001739502
1,1.0,0.4499399554391796,0.3530928677898424,0.37820299672417085,0.399346469119225,0.4194298721118805,0.4392268342812735,0.4600368062255814,0.4848139486732346,0.5149107940405996,0.5605958726892901,1.010466376465546,0.8558823529411764,0.4270242701062657,0.0,0.9146315789473685,50,516,1108,772094,no_split,narrow,individual,1,0.707726001739502
0,0.0,0.4314561265049761,0.3465319482404154,0.3699042667141964,0.38806831033310385,0.40427527187310136,0.42052728698337555,0.43807913504605633,0.457082513626435,0.4832834442710272,0.5268500510673253,1.0719407284951195,0.9666331658291457,0.4476689770797689,0.0,0.8955282555282555,50,516,1507,772094,no_split,narrow,individual,1,0.7109818458557129
1,1.0,0.463180310081614,0.36135656071457356,0.39009883450247596,0.412619000395485,0.4325855254497612,0.4519234655887753,0.47439796537604534,0.49964537720787194,0.5310991220768628,0.5770793749340605,1.1014928411991314,0.8275,0.4476689770797689,0.0,0.8955282555282555,50,516,1507,772094,no_split,narrow,individual,1,0.7109818458557129
0,0.0,0.4491950268506131,0.3587324742777957,0.3830420419483434,0.4013984193703645,0.41972341174612765,0.4369566164561321,0.45602962275210895,0.4782684357745869,0.5071500321645889,0.5521074080507218,1.1066089359915696,0.9797849462365591,0.46319793535428255,0.0,0.9589528795811518,50,516,1538,772094,no_split,narrow,individual,1,0.7070174217224121
1,1.0,0.47648640975062195,0.37373825183097864,0.40210996466551074,0.42515506753713805,0.44492122329351697,0.4655543163507058,0.48665900880053387,0.5126094821064447,0.5447740194092255,0.5940759679148974,0.9911904420186924,0.9391836734693878,0.46319793535428255,0.0,0.9589528795811518,50,516,1538,772094,no_split,narrow,individual,1,0.7070174217224121
0,0.0,0.4616423110569156,0.37018990782854894,0.3924425824836661,0.4095181223480872,0.425469401300146,0.4414161864578082,0.46034087278559777,0.4830295146937165,0.5172691500613674,0.5777539621731089,1.3552658984056827,0.9971276595744681,0.49143445342884584,0.0,0.9643715846994535,50,516,1582,772094,no_split,narrow,individual,1,0.7011582851409912
1,1.0,0.5229003116643675,0.4122734708917113,0.4449053107761217,0.4700642816427186,0.4929363837616814,0.5150363959548471,0.5387596185763095,0.5624117672796016,0.5935248708319599,0.6403780083308956,1.051946641020833,0.9297752808988764,0.49143445342884584,0.0,0.9643715846994535,50,516,1582,772094,no_split,narrow,individual,1,0.7011582851409912
0,0.0,0.43997934886940476,0.3489719659048993,0.36877658433559846,0.384603447317673,0.39926819344306047,0.41550773960441667,0.4336692726694146,0.45595373135978234,0.491347647331102,0.567111192194181,1.3251858851669132,0.9912562814070351,0.47046659636835064,0.0,0.9210526315789473,50,516,1583,772094,no_split,narrow,individual,1,0.7072479724884033
1,1.0,0.5008014076298019,0.3809342790676148,0.4155956702500044,0.44375072143758,0.4680368949649601,0.49120669086024904,0.5156570543207177,0.5423612655840969,0.5744195442285228,0.6274124435317083,1.3145528912055624,0.8512,0.47046659636835064,0.0,0.9210526315789473,50,516,1583,772094,no_split,narrow,individual,1,0.7072479724884033
0,0.0,0.554602130946772,0.4049796759413774,0.4319106675397959,0.4572540020056596,0.48151256694303063,0.50836044508161,0.5451939784801211,0.592276917964327,0.657137383432108,0.767188295930835,1.527043746977254,0.9504918032786885,0.5704010391166957,0.0,0.9147802197802197,50,516,1597,772094,no_split,narrow,individual,1,0.7053325176239014
1,1.0,0.5863745208575577,0.4227961462680416,0.45954567427215837,0.4925266422207104,0.5251864288023185,0.5570214124544417,0.5918994186657905,0.6351294287050745,0.6908463525951218,0.7787890137331472,1.5386589794818843,0.8786740331491713,0.5704010391166957,0.0,0.9147802197802197,50,516,1597,772094,no_split,narrow,individual,1,0.7053325176239014
0,0.0,0.413158788455454,0.3309194119316264,0.35244277815476466,0.3695936801754154,0.3853218234822822,0.40072647429355734,0.4186806859095847,0.43821448612739766,0.46450693148161953,0.5085118040274985,1.1769630752325435,0.9908196721311475,0.44100320977642365,0.0,0.9631466666666667,50,516,1601,772094,no_split,narrow,individual,1,0.7081241607666016
1,1.0,0.46754242384797273,0.3557074538413446,0.3853130532234576,0.4094910023837675,0.4327991194183435,0.4553274034895775,0.4807949209761446,0.5093849708501301,0.5438085864001606,0.5951977940179254,1.0371594410315397,0.9367708333333333,0.44100320977642365,0.0,0.9631466666666667,50,516,1601,772094,no_split,narrow,individual,1,0.7081241607666016
0,0.0,0.49405762654695157,0.3729095682906373,0.3993480940185561,0.4208534749512435,0.4417471656854919,0.4638680884380404,0.4897777778499005,0.5249182478951561,0.57174543568063,0.6611678535114938,1.47102237509315,0.9846534653465346,0.5158946214624505,0.0,0.9511827956989247,50,516,1614,772094,no_split,narrow,individual,1,0.7082993984222412
1,1.0,0.5418421095385137,0.40414583726869513,0.4410538111931157,0.4713664474309728,0.4994283825572547,0.5263802630059572,0.5550435381977354,0.5889023968814658,0.630658303743692,0.6951171187726793,1.3408720964426246,0.9114117647058824,0.5158946214624505,0.0,0.9511827956989247,50,516,1614,772094,no_split,narrow,individual,1,0.7082993984222412
0,0.0,0.4609856087280497,0.3710971556189461,0.39819926322183513,0.4171111110441687,0.43469459184955844,0.4517001053970596,0.4703702553991791,0.491326215992676,0.5186094157095955,0.5589388946751267,1.1610396791319195,0.9921546961325967,0.4867206704134059,0.0,0.9703157894736842,50,516,1638,772094,no_split,narrow,individual,1,0.7127680778503418
1,1.0,0.5101279375744584,0.3956580219668498,0.429949701201042,0.45664439151391606,0.4793962365091529,0.5018793189352001,0.525888646402767,0.5518985638534583,0.5833153630177768,0.6323082387811543,1.0481225208359788,0.9504522613065327,0.4867206704134059,0.0,0.9703157894736842,50,516,1638,772094,no_split,narrow,individual,1,0.7127680778503418
0,0.0,0.3983990578278463,0.3262099757642603,0.3456612661755051,0.36048428213427103,0.3738296763337506,0.38787961851801445,0.4032674483012582,0.4203281381175781,0.4424021620834442,0.4811760367042786,0.9063015015743381,0.9729591836734693,0.41538449836768276,0.0,0.9149865229110512,50,516,1657,772094,no_split,narrow,individual,1,0.7034504413604736
1,1.0,0.43440819177229956,0.34375944906456585,0.366967740365702,0.38728557273672026,0.40537228659294156,0.42335153177170426,0.44289791203797385,0.46646892652113897,0.4951086112449577,0.538680866824377,0.9227991689571808,0.8500571428571428,0.41538449836768276,0.0,0.9149865229110512,50,516,1657,772094,no_split,narrow,individual,1,0.7034504413604736
0,0.0,0.45187266143016563,0.36926907757775046,0.39254557752513813,0.4086656254573682,0.42392980864315644,0.43919427403192646,0.4556751702268856,0.47528161902462646,0.5021389447532035,0.5476671819174335,1.162899494058914,0.9910769230769231,0.4746443975205407,0.0,0.962233502538071,50,516,1663,772094,no_split,narrow,individual,1,0.7069532871246338
1,1.0,0.4969584102724158,0.3954836345451646,0.42484978847130683,0.4463547387919995,0.4680032618994783,0.48754616102367243,0.509220941692303,0.5340121748321817,0.5638739506206499,0.6107464366697977,0.9898241785075754,0.9339698492462312,0.4746443975205407,0.0,0.962233502538071,50,516,1663,772094,no_split,narrow,individual,1,0.7069532871246338
0,0.0,0.4949431697375589,0.39092741267766445,0.416222684855521,0.43523780135643875,0.4551239639014867,0.4750721497851901,0.49707847741343947,0.5230266885725224,0.5599276301103275,0.6221455699319569,1.1170730865440783,0.9729281767955801,0.5121591368823111,0.0,0.9479005524861879,50,516,1761,772094,no_split,narrow,individual,1,0.7060666084289551
1,1.0,0.5293751040270629,0.4088242129309072,0.43946854470715163,0.4637347659910201,0.48752885292788645,0.5117330236005395,0.5386193924202898,0.569517565826842,0.6071986936518659,0.6726033367703032,1.4377424409351856,0.9228729281767956,0.5121591368823111,0.0,0.9479005524861879,50,516,1761,772094,no_split,narrow,individual,1,0.7060666084289551
0,0.0,0.4495930156576727,0.35040416045310213,0.3754502824658374,0.394588044055199,0.4124973369198546,0.4309843045571997,0.45258844643820273,0.47685177035623344,0.5107011756126201,0.5677671488351023,1.3185238089478537,0.9738043478260869,0.4683281996278252,0.0,0.9372432432432433,50,516,1768,772094,no_split,narrow,individual,1,0.7085263729095459
1,1.0,0.4868619300069006,0.36501059694209775,0.39695029119706565,0.4221224603679375,0.4470412411519717,0.47193952233567393,0.49825751049403805,0.5287954008190171,0.5668065739278011,0.6267643307926108,1.1369292264420487,0.9010752688172043,0.4683281996278252,0.0,0.9372432432432433,50,516,1768,772094,no_split,narrow,individual,1,0.7085263729095459
0,0.0,0.3752592384245879,0.2976360851759829,0.3198808118900427,0.3369634785635105,0.3523858592969595,0.3665190924819516,0.3815238983229007,0.3996423068140642,0.42181525378041995,0.4606251833524963,0.8694166071867149,0.973854748603352,0.39477625130886773,0.0,0.9070588235294118,50,516,1813,772094,no_split,narrow,individual,1,0.7063095569610596
1,1.0,0.4126918682641811,0.31768356851252305,0.3449868059242557,0.3662300975457027,0.38534993824956715,0.4040861818149989,0.423158051966047,0.4461808622163031,0.4748193500506974,0.5182061975724153,1.0845844596326886,0.8457435897435898,0.39477625130886773,0.0,0.9070588235294118,50,516,1813,772094,no_split,narrow,individual,1,0.7063095569610596
0,0.0,0.3994291367924094,0.31504125091966506,0.335275544673525,0.3511995470324659,0.3662247679977736,0.3800176516949957,0.39782131601698933,0.41917669831458043,0.45024316031972866,0.5035621436641022,1.1759628457854447,0.9912195121951219,0.4231850142334892,0.0,0.9527722772277227,50,516,1821,772094,no_split,narrow,individual,1,0.7040650844573975
1,1.0,0.4476571492858579,0.33972671491733003,0.3690767018657383,0.39237281420652587,0.41477720899066467,0.43506392491964413,0.45911758732799013,0.4851604909499322,0.5174605664548578,0.5676879259042686,1.299474731034502,0.9131658291457286,0.4231850142334892,0.0,0.9527722772277227,50,516,1821,772094,no_split,narrow,individual,1,0.7040650844573975
0,0.0,0.39320851672824597,0.31688297245326336,0.3358688930305857,0.3508294794226843,0.36423351237929597,0.3794694615050257,0.3953813484703391,0.4153144667606467,0.44274898717879035,0.48638102813689993,0.9653276340290394,0.9824309392265194,0.40861497815315007,0.0,0.9647872340425532,50,516,3286,772094,no_split,narrow,individual,1,0.7048752307891846
1,1.0,0.4229153346552406,0.3308435147398112,0.35425904378867334,0.37385413066511186,0.39178183895691165,0.41069782410168476,0.4311089443027487,0.4547775674858713,0.48529492038420124,0.5320768012113745,0.966630686600178,0.9484102564102564,0.40861497815315007,0.0,0.9647872340425532,50,516,3286,772094,no_split,narrow,individual,1,0.7048752307891846
0,0.0,0.46667739285326504,0.37117391497247837,0.39532724784511014,0.4138821467441895,0.4320605510369915,0.4491142487231217,0.4694173293580482,0.4933789794027407,0.5256447739029284,0.5809448749914015,1.2933343852123678,0.9848863636363636,0.4940109635592645,0.0,0.9515384615384616,50,516,3292,772094,no_split,narrow,individual,1,0.7069375514984131
1,1.0,0.5195998382627534,0.397982639150373,0.4311601236740513,0.4575631361017076,0.48148308062533773,0.5062909089091192,0.5333715197439926,0.563218583257191,0.599898648041697,0.6556527728867871,1.1522437588693877,0.9203191489361702,0.4940109635592645,0.0,0.9515384615384616,50,516,3292,772094,no_split,narrow,individual,1,0.7069375514984131
0,0.0,0.39354043725809834,0.324521206677432,0.34453136504899506,0.3597294099035525,0.37305915770113285,0.38518683170263723,0.398989710832703,0.41495911314514905,0.43600060742524227,0.46954467290145074,0.8166347925075184,0.9912299465240642,0.4190537175120342,0.0,0.9256623376623376,50,516,3487,772094,no_split,narrow,individual,1,0.7054147720336914
1,1.0,0.44314959330741804,0.35147489317889263,0.37881256945361785,0.399802416921897,0.41908276296090863,0.4364815949411592,0.4556895943646567,0.4781340788642464,0.5028305327128275,0.541383032396874,1.07437316198156,0.8637373737373737,0.4190537175120342,0.0,0.9256623376623376,50,516,3487,772094,no_split,narrow,individual,1,0.7054147720336914
0,0.0,0.4053497124167394,0.3483161795835996,0.36560916225164686,0.37943820889516844,0.3910008385686373,0.40174268067285135,0.4130318783202356,0.4250571837647183,0.4411502307107677,0.4664089859028604,0.7779288242949574,0.9811940298507462,0.419214260840222,0.0,0.9292385786802031,50,516,3580,772094,no_split,narrow,individual,1,0.7228696346282959
1,1.0,0.43365350557141374,0.3629327754946701,0.383594204508835,0.39926760952799367,0.41332550420301134,0.4273647712014496,0.44224740889224645,0.45930030022729434,0.4818274985121975,0.5113667740993502,0.8897259465682303,0.8751295336787565,0.419214260840222,0.0,0.9292385786802031,50,516,3580,772094,no_split,narrow,individual,1,0.7228696346282959
0,0.0,0.48255633552306476,0.37130977453494557,0.3976877369857196,0.4189737387810846,0.43820008058226484,0.45818001200029607,0.4809749460784309,0.509482303280246,0.5507837710926899,0.6287455139503841,1.251048541301674,0.9472043010752688,0.49573203139911765,0.0,0.8944198895027624,50,516,3625,772094,no_split,narrow,individual,1,0.711247444152832
1,1.0,0.5096563463590369,0.3895489511686872,0.42134464549343204,0.44672866133111444,0.4694561067198427,0.4937552194993272,0.518144808612768,0.5464992734816962,0.5866830476978314,0.6480000672999686,1.386709467471608,0.8386363636363636,0.49573203139911765,0.0,0.8944198895027624,50,516,3625,772094,no_split,narrow,individual,1,0.711247444152832
0,0.0,0.5191927432704684,0.41819267262386206,0.4478806094582397,0.4696904053820125,0.4888760914317048,0.5081339133439511,0.5269601796371114,0.5517876473254274,0.5816627833433636,0.6314491156924357,1.120205425215474,0.9938202247191011,0.5458033029177958,0.0,0.9747967479674797,50,516,3754,772094,no_split,narrow,individual,1,0.7139551639556885
1,1.0,0.5706026726414832,0.4467047354708325,0.4817746795612932,0.5087769810340756,0.5350401596447977,0.5592126292126567,0.5852851314174552,0.6155962538474415,0.6519739072672328,0.7088515490078986,1.2816517776020615,0.9570680628272251,0.5458033029177958,0.0,0.9747967479674797,50,516,3754,772094,no_split,narrow,individual,1,0.7139551639556885
0,0.0,0.40811279696943886,0.3361387608982988,0.3567705592236082,0.37226653123786485,0.3866928874092676,0.39994529334997875,0.41440603268467985,0.43170615079628893,0.4541667699884811,0.4891312684483672,0.8505914231820209,0.9942553191489362,0.425801891561711,0.0,0.9740414507772021,50,516,3910,772094,no_split,narrow,individual,1,0.7135379314422607
1,1.0,0.4425975975382119,0.3529139139874778,0.3809143200912257,0.40036067014310694,0.4186045899147031,0.43738471689612424,0.45584596998911586,0.47561139474508185,0.499678827773697,0.5378137649332183,0.8666659558651313,0.9548484848484848,0.425801891561711,0.0,0.9740414507772021,50,516,3910,772094,no_split,narrow,individual,1,0.7135379314422607
0,0.0,0.3985272684284106,0.3345501276986607,0.350598234880332,0.3632937841552822,0.3750528644590739,0.38691552841871757,0.39968339927352414,0.41646059664195534,0.43780959626091903,0.4773796712464641,0.8640135763766508,0.9899447513812155,0.4143577552922029,0.0,0.964421052631579,50,516,4222,772094,no_split,narrow,individual,1,0.7106025218963623
1,1.0,0.4287563388215819,0.35101096190542513,0.37308963366555786,0.3901272300067125,0.40582294791104806,0.42123258510206363,0.4373135467939712,0.4566048405998323,0.4804558853626849,0.5147487433518384,1.0384167551094898,0.9412060301507538,0.4143577552922029,0.0,0.964421052631579,50,516,4222,772094,no_split,narrow,individual,1,0.7106025218963623
0,0.0,0.45945504624367184,0.3497931653381739,0.37868659537108,0.3999963776982331,0.4181878961786793,0.4381831348123564,0.4592404804679452,0.48595457318299795,0.5235575078226429,0.5918171188223998,1.4835714823655115,0.9494949494949495,0.47753246870607885,0.0,0.8807052896725441,50,516,4264,772094,no_split,narrow,individual,1,0.71156907081604
1,1.0,0.49551904984957923,0.3686900789203366,0.4020446282217163,0.42794141897384375,0.4517965064522031,0.4774892443652706,0.5048471006620455,0.5373758007166579,0.5798126194299171,0.6433663351706975,1.2277847849283754,0.8122613065326633,0.47753246870607885,0.0,0.8807052896725441,50,516,4264,772094,no_split,narrow,individual,1,0.71156907081604
0,0.0,0.42117860715691,0.3565042018616991,0.37564621078527444,0.38959310296873995,0.4022926764313006,0.41500008716604253,0.42861734445404787,0.44328318735510724,0.4620252078071124,0.4912685351846543,0.8065435823153689,0.9935449735449735,0.44259256160316995,0.0,0.9716847826086956,50,516,5281,772094,no_split,narrow,individual,1,0.7137007713317871
1,1.0,0.4652028263536902,0.3774040853993003,0.4034507558937527,0.42362059972113575,0.44140117182367666,0.4588094579851316,0.477309518058442,0.4975451176725853,0.5228992736433502,0.5599772386238029,0.9981749342708187,0.9486033519553073,0.44259256160316995,0.0,0.9716847826086956,50,516,5281,772094,no_split,narrow,individual,1,0.7137007713317871
0,0.0,0.44627408197686363,0.3637947973479058,0.38411509669798777,0.40028186565303836,0.4158628271624504,0.43251370099408953,0.44988068132869147,0.4699671122688518,0.4995126048398977,0.548051711826865,0.9717053673512334,0.9970652173913044,0.47382253856892526,0.0,0.9804864864864865,50,516,5332,772094,no_split,narrow,individual,1,0.7164714336395264
1,1.0,0.5010747751976314,0.39719732255461404,0.42801755896459,0.4508053447154804,0.47205289456209676,0.49255342524028434,0.5149809987779949,0.5394819514594125,0.567866794237952,0.6115621490278188,1.1421740843942663,0.9640860215053764,0.47382253856892526,0.0,0.9804864864864865,50,516,5332,772094,no_split,narrow,individual,1,0.7164714336395264
0,0.0,0.4471951150354544,0.36647429389132724,0.3891038762483218,0.40705348290646376,0.42232094947182414,0.43723717263521555,0.452646775185848,0.47091394639830114,0.496342201469132,0.5374971044808043,1.1484559502610017,0.9828426395939086,0.4652932328230653,0.0,0.9521025641025641,50,516,5575,772094,no_split,narrow,individual,1,0.7185628414154053
1,1.0,0.48376644113477163,0.3874858502041297,0.4147443075831857,0.4366977426754872,0.45627529776372056,0.47578347190448356,0.4961983388530696,0.5189979033508848,0.5473758095373794,0.590272241588052,0.9177336554454049,0.9207253886010363,0.4652932328230653,0.0,0.9521025641025641,50,516,5575,772094,no_split,narrow,individual,1,0.7185628414154053
0,0.0,0.4464165679518763,0.35647938984398275,0.37996431968540795,0.3984537444734725,0.41520776813753807,0.432046514213103,0.4499643548827502,0.4716239246745005,0.49954234378276685,0.554002348243202,1.0961061364631255,0.9625906735751295,0.45904930671433675,0.0,0.9070918367346938,50,516,5731,772094,no_split,narrow,individual,1,0.7179563045501709
1,1.0,0.47130115888094415,0.37406786341143455,0.40142966049875095,0.42249596170220105,0.44165183738092934,0.4603587892350277,0.4827244463359266,0.5055766849294189,0.5342916510137624,0.579476643290443,1.310924096098172,0.8532663316582915,0.45904930671433675,0.0,0.9070918367346938,50,516,5731,772094,no_split,narrow,individual,1,0.7179563045501709
0,0.0,0.4306845065486442,0.3583680362132355,0.38098317547997296,0.3967594046889471,0.4116852360385671,0.4242686197103196,0.4383531446054698,0.45453820186770283,0.4748803280443373,0.5083984678909275,0.849328441048935,0.9978260869565218,0.4584865130449611,0.0,0.9574931880108992,50,516,5761,772094,no_split,narrow,individual,1,0.7176940441131592
1,1.0,0.4864404430740446,0.3937337103694609,0.4242008838794912,0.44662783274567136,0.4654622996084481,0.48331528825016756,0.5012920697606297,0.5220286117449106,0.545565427089315,0.5814324404848267,0.895044002235745,0.9169398907103825,0.4584865130449611,0.0,0.9574931880108992,50,516,5761,772094,no_split,narrow,individual,1,0.7176940441131592
0,0.0,0.42843075452755175,0.32998608181087347,0.35586389630999066,0.3748502373304524,0.39243054170028185,0.41038178421313126,0.43032564143856555,0.45486106946153176,0.4886482717469261,0.5483085354547856,1.1264978873859073,0.9225,0.4399488125933599,0.0,0.8701897018970189,50,516,5803,772094,no_split,narrow,individual,1,0.7250351905822754
1,1.0,0.44957584620060254,0.3412159272538227,0.36915712917994625,0.3929473688440202,0.4130419445031645,0.43372809198977125,0.4573569525241932,0.4837538691106384,0.5207081214046801,0.5759099787049828,1.1433451171426352,0.8264676616915423,0.4399488125933599,0.0,0.8701897018970189,50,516,5803,772094,no_split,narrow,individual,1,0.7250351905822754
0,0.0,0.5001124928108946,0.37733133329859975,0.40755237219217205,0.4303463355045451,0.4510400418589393,0.4736956035881681,0.4980117120370026,0.5289664782320265,0.5726064941216751,0.65450740244728,1.474997755412759,0.9788059701492537,0.5242762961644043,0.0,0.9323514211886305,50,516,5815,772094,no_split,narrow,individual,1,0.7227628231048584
1,1.0,0.5503887933367454,0.4060875712281846,0.4465820031646227,0.4770817490717817,0.5060580098168151,0.5343214501567171,0.5628913189610154,0.598318184798423,0.6416002646340015,0.7104195207722332,1.4490776657236693,0.8821505376344086,0.5242762961644043,0.0,0.9323514211886305,50,516,5815,772094,no_split,narrow,individual,1,0.7227628231048584
0,0.0,0.414156995358347,0.34940663506072395,0.3668169443396661,0.38032178853039034,0.3928109478581886,0.40446852280382917,0.4182775296919963,0.4337697908314194,0.4549032404348472,0.486569419561708,0.8826015236416401,0.9934831460674157,0.44364247241252663,0.0,0.966158038147139,50,516,6055,772094,no_split,narrow,individual,1,0.7198703289031982
1,1.0,0.47141186350059,0.3746048366815921,0.4008536868944501,0.4227270138374171,0.44297421993418434,0.46313127981057756,0.48275830661044716,0.5077737331022446,0.536886250058855,0.5818903656636245,1.0426823688137388,0.9404232804232804,0.44364247241252663,0.0,0.966158038147139,50,516,6055,772094,no_split,narrow,individual,1,0.7198703289031982
0,0.0,0.47435268014436877,0.3601074651463458,0.38463025039915316,0.40470826067736904,0.4235673845667828,0.44516340567965784,0.4705708153592923,0.5020480855722316,0.5486703835370071,0.6259460842650035,1.2178207521016562,0.966530612244898,0.48847722591347953,0.0,0.9340983606557377,50,516,6109,772094,no_split,narrow,individual,1,0.7260527610778809
1,1.0,0.5047619963296307,0.3781821790802981,0.4087803626641738,0.43542622053253915,0.4586264715431547,0.4856221052905725,0.513322311980517,0.5478405021445262,0.587654264575622,0.6539689541979279,1.1741639010207674,0.8967058823529411,0.48847722591347953,0.0,0.9340983606557377,50,516,6109,772094,no_split,narrow,individual,1,0.7260527610778809
0,0.0,0.3980186887448978,0.3336142199804085,0.3499184414253021,0.3621257632002183,0.3734374515013939,0.3847952779176449,0.39715416484988963,0.412553038204124,0.4342732333723594,0.4765316423663613,1.0136044993808921,0.9931132075471698,0.42262509019096095,0.0,0.92810551558753,50,516,6214,772094,no_split,narrow,individual,1,0.7273883819580078
1,1.0,0.44807171022298714,0.3601990219129918,0.3866345926228468,0.40742374807650295,0.4258733853459275,0.44237418861688627,0.4602239466342172,0.4793669023170056,0.5033877995396241,0.539084796162075,0.9875178207723261,0.8608780487804878,0.42262509019096095,0.0,0.92810551558753,50,516,6214,772094,no_split,narrow,individual,1,0.7273883819580078
0,0.0,0.45410331577720403,0.3550401289340465,0.3810565032233654,0.40205506272384745,0.4201724643297891,0.4388261531739945,0.458559245706739,0.48322901237955496,0.5143371644529658,0.5719118465275944,1.1801163413705675,0.949468085106383,0.4631510904279327,0.0,0.9128381962864721,50,516,6253,772094,no_split,narrow,individual,1,0.7171056270599365
1,1.0,0.47215099325511256,0.3654611650646385,0.3945756429563839,0.4166043771989597,0.43699974340721803,0.45712023143872266,0.48096320298804357,0.5072641700597418,0.5406832520998224,0.5966440470736759,1.1083195742246508,0.8764021164021164,0.4631510904279327,0.0,0.9128381962864721,50,516,6253,772094,no_split,narrow,individual,1,0.7171056270599365
0,0.0,0.4518542771705317,0.3697651308767551,0.39505428476773496,0.413691968881082,0.42970396992610665,0.44543639844008176,0.46089342856536786,0.47880916553171426,0.5022699331504334,0.5391427226024573,0.9317277538137064,0.9860773480662983,0.47069547870616135,0.0,0.9448913043478261,50,516,6262,772094,no_split,narrow,individual,1,0.7236919403076172
1,1.0,0.488932149711236,0.3922208466725533,0.42123869973973566,0.44252837421368846,0.460815129827867,0.4808615108882817,0.5027545195329717,0.5247379031562505,0.5533676173652723,0.5953765088668689,1.069020881342354,0.9050267379679144,0.47069547870616135,0.0,0.9448913043478261,50,516,6262,772094,no_split,narrow,individual,1,0.7236919403076172
0,0.0,0.49591798440727697,0.40354225523942167,0.42663929054147864,0.44443797528073076,0.4623974658110306,0.48113844415058293,0.5014758953333751,0.5246630066532748,0.5554558384385387,0.6085943265338764,1.0348297406017812,0.99475935828877,0.5126562200430071,0.0,0.9765217391304348,50,516,6361,772094,no_split,narrow,individual,1,0.7237193584442139
1,1.0,0.5299493143185957,0.4309863147321217,0.4597179774544916,0.48219102990330936,0.5018975106226604,0.5208621548930217,0.5409402197251186,0.5647600152487517,0.5941776125086088,0.6381960637312848,1.1246695284070933,0.9576795580110498,0.5126562200430071,0.0,0.9765217391304348,50,516,6361,772094,no_split,narrow,individual,1,0.7237193584442139
0,0.0,0.40921424587074534,0.33865940697526503,0.3595574978244188,0.37506420389501144,0.3891576488803966,0.40291825134434245,0.41749537879711873,0.4330404461228801,0.4540112429676604,0.48531430932506125,0.9407855371820665,0.9855737704918033,0.42416452134794286,0.0,0.9502105263157895,50,516,6427,772094,no_split,narrow,individual,1,0.7260982990264893
1,1.0,0.4380523406998574,0.35481157855580625,0.3791182959756489,0.3985054726090454,0.4159177905707787,0.4319356626430233,0.44889304879765335,0.4679703026998938,0.49079572620925094,0.5291410937432034,0.8843975135213366,0.9173604060913706,0.42416452134794286,0.0,0.9502105263157895,50,516,6427,772094,no_split,narrow,individual,1,0.7260982990264893
0,0.0,0.461261293375979,0.37920074630310163,0.39899537997339807,0.41498591240940713,0.42905305889235823,0.44423481003796705,0.4628745877915053,0.48453043321446815,0.51313766220158,0.5655061062423811,0.9592410579597688,0.9758115183246073,0.47277791258760776,0.0,0.9446965699208443,50,516,6583,772094,no_split,narrow,individual,1,0.7263388633728027
1,1.0,0.48447830763772,0.39168854403024905,0.4155620739331589,0.4352282748772754,0.45358426380305805,0.47197026274126236,0.4924730407537178,0.515844551771739,0.5463980651107427,0.5928283507561418,1.1806779919336765,0.9130851063829787,0.47277791258760776,0.0,0.9446965699208443,50,516,6583,772094,no_split,narrow,individual,1,0.7263388633728027
0,0.0,0.43942629516785897,0.35707111565437694,0.37960097829552747,0.3959053392120567,0.4110618155373774,0.4259964715623349,0.44322387353034415,0.46212948945903237,0.48893589603027776,0.5365821720400537,1.1208657133108066,0.9881025641025641,0.4641534563331567,0.0,0.9401025641025641,50,516,6634,772094,no_split,narrow,individual,1,0.7225182056427002
1,1.0,0.4888806174984543,0.384593422455852,0.4134500011747364,0.43732940912809554,0.458105895878781,0.48002447764213796,0.5025698011078178,0.5272806377404698,0.5581312083622239,0.6035461376431777,1.093213982474423,0.892102564102564,0.4641534563331567,0.0,0.9401025641025641,50,516,6634,772094,no_split,narrow,individual,1,0.7225182056427002
0,0.0,0.45150973646082637,0.3792259174074206,0.4005708353109193,0.4161182468358508,0.43028396125782187,0.443403888991863,0.45793873586105965,0.474742461654053,0.49553770359937654,0.529090811657961,1.0311694138525875,0.992,0.4820111772777466,0.0,0.94208,50,516,6844,772094,no_split,narrow,individual,1,0.7262282371520996
1,1.0,0.5133369813599891,0.4060618179316129,0.4360649234780814,0.46000049284933037,0.48322004308186817,0.5047571345131683,0.5278677572563878,0.553239612802497,0.5847506986489119,0.631688180906534,1.1248886585626032,0.8908108108108108,0.4820111772777466,0.0,0.94208,50,516,6844,772094,no_split,narrow,individual,1,0.7262282371520996
0,0.0,0.4405616643525622,0.35467886826758077,0.3775244880208795,0.3947504443271165,0.4101151929891879,0.4256140228907995,0.44367008932360663,0.4632702392033633,0.4911209421407823,0.5412599565458417,1.0162914504330558,0.9822950819672132,0.4624870901013104,0.0,0.9319346049046322,50,516,7624,772094,no_split,narrow,individual,1,0.7254810333251953
1,1.0,0.484293355927511,0.37776696171734203,0.40685981693833995,0.4301004463210939,0.4517479319547948,0.4747747187171336,0.497673712625823,0.5230107434641952,0.554314522613258,0.6033362434133199,0.9990266963326322,0.8818478260869566,0.4624870901013104,0.0,0.9319346049046322,50,516,7624,772094,no_split,narrow,individual,1,0.7254810333251953
0,0.0,0.40333778497391726,0.34135458421643017,0.35684710272255005,0.3681520029574289,0.3793239217060022,0.3908155138414396,0.4035790488294977,0.4183533951072196,0.4398716371487015,0.4780990540594113,1.1834441338805366,0.9803208556149733,0.42773751476388616,0.0,0.9192689295039165,50,516,7756,772094,no_split,narrow,individual,1,0.7262675762176514
1,1.0,0.4510168487981933,0.3563794395941596,0.379868344722687,0.4002150036836906,0.4199127267545079,0.4395088511742936,0.4611489044818335,0.48555473610411437,0.5144461023636409,0.5582493980245359,1.0394640026528554,0.8610204081632653,0.42773751476388616,0.0,0.9192689295039165,50,516,7756,772094,no_split,narrow,individual,1,0.7262675762176514
0,0.0,0.4313220933311654,0.3404934656676193,0.364669543042698,0.3847381893740607,0.4021853706906129,0.41929821445910487,0.4376585993907566,0.46094118028044984,0.4902061859707365,0.5371441774187774,1.0100146484456478,0.9854166666666667,0.4476352200121664,0.0,0.9666844919786096,50,516,7768,772094,no_split,narrow,individual,1,0.7261545658111572
1,1.0,0.46484467233498045,0.3594947304941384,0.3898516449583743,0.41259186162887834,0.4334667114143605,0.45459144008954466,0.4784373274040763,0.5031577015354387,0.5338413461764318,0.5815969593921794,1.1424156520857474,0.946923076923077,0.4476352200121664,0.0,0.9666844919786096,50,516,7768,772094,no_split,narrow,individual,1,0.7261545658111572
0,0.0,0.40074853438227137,0.31758920418347575,0.33909379438136183,0.35553934884876587,0.37078737532093825,0.38543235452322333,0.40230657967305544,0.4219994553853627,0.4481352949739836,0.4977863745462031,1.2722678499991338,0.9823529411764705,0.4273723266619195,0.0,0.9148387096774193,50,516,7807,772094,no_split,narrow,individual,1,0.7264842987060547
1,1.0,0.45428394372296926,0.341781832852352,0.37231033853172996,0.3954579159049577,0.41913219583435485,0.442741513986892,0.46777173278476314,0.49526141179998373,0.5293966090740139,0.578838179588854,1.0273800231659118,0.8465945945945946,0.4273723266619195,0.0,0.9148387096774193,50,516,7807,772094,no_split,narrow,individual,1,0.7264842987060547
0,0.0,0.39794393781910525,0.33026380451802173,0.34647539295935414,0.3587414614500425,0.37058018905731926,0.38345090698374384,0.3977849762675653,0.4143965080809017,0.43854214633295097,0.4826829796203826,1.0344390455064782,0.9861538461538462,0.417127817919209,0.0,0.9505817174515235,50,516,7813,772094,no_split,narrow,individual,1,0.7259314060211182
1,1.0,0.43663321556288986,0.3484576411444038,0.3713242152981213,0.3903889901871559,0.4091579376152161,0.4267241270041561,0.4463048889355392,0.46884594447503813,0.49529400734637136,0.5360446024378225,0.8912306131339565,0.914413407821229,0.417127817919209,0.0,0.9505817174515235,50,516,7813,772094,no_split,narrow,individual,1,0.7259314060211182
0,0.0,0.4051321103697342,0.34686280523030827,0.364944384306762,0.37843609636024605,0.3897788274342118,0.4007896848023317,0.4118305984428812,0.4244833791498274,0.4405750968433429,0.4676987547559462,0.7815705299444369,0.9968085106382979,0.4336285204829162,0.0,0.9604950495049505,50,516,7828,772094,no_split,narrow,individual,1,0.729433536529541
1,1.0,0.45843095150735264,0.3768558253565731,0.40121442706367516,0.41980637194290626,0.4370473318897286,0.45392479095248484,0.4711199986279293,0.49028297643051094,0.5132226629744123,0.5459615769090429,0.8999087158219773,0.9288888888888889,0.4336285204829162,0.0,0.9604950495049505,50,516,7828,772094,no_split,narrow,individual,1,0.729433536529541
0,0.0,0.5330988508495361,0.3989976566427644,0.4277120881451764,0.4515018924572528,0.47441867920596426,0.4989280090348851,0.5280285035035656,0.5641306591257189,0.6175204900318951,0.7150063157908836,1.6358271744004933,0.9817989417989418,0.5595090520195678,0.0,0.950594315245478,50,516,7840,772094,no_split,narrow,individual,1,0.7273387908935547
1,1.0,0.5847187895000525,0.42939064040748887,0.47096478805188363,0.5043386735497751,0.5352488924596067,0.5649403507718537,0.5960860512713817,0.635851753101623,0.6856641659975712,0.7608823880227872,1.6143199209702805,0.9208080808080809,0.5595090520195678,0.0,0.950594315245478,50,516,7840,772094,no_split,narrow,individual,1,0.7273387908935547
0,0.0,0.4653203534473775,0.3857960530129978,0.40684275870235564,0.42297797712616897,0.43856286474095785,0.45414927761564944,0.4715358674339226,0.4910338077090617,0.5179325385914332,0.559026048220348,0.9719179832860194,0.9994444444444445,0.4943668879368814,0.0,0.9922666666666666,50,516,7924,772094,no_split,narrow,individual,1,0.7365102767944336
1,1.0,0.5211790736195004,0.4207144583096612,0.45266667559938023,0.47606514663175137,0.4966518347389128,0.5164737571977188,0.5351545248191293,0.558282717008522,0.5858595312246452,0.6287456168538323,0.9089315758339187,0.9856410256410256,0.4943668879368814,0.0,0.9922666666666666,50,516,7924,772094,no_split,narrow,individual,1,0.7365102767944336
0,0.0,0.4555501356696836,0.37089885754435076,0.39325967981620796,0.410075154180664,0.42593781099802885,0.4416743305969246,0.45860193349295353,0.4793748786991526,0.5087742912318787,0.5556015310554844,1.2458358420432836,0.9898947368421053,0.4763173670426897,0.0,0.9690126582278481,50,516,7939,772094,no_split,narrow,individual,1,0.7379693984985352
1,1.0,0.49556504490059766,0.39124968764859147,0.4202539886247041,0.4429504176053501,0.46450085907946237,0.48390596030072397,0.5070327501849096,0.5328661548071688,0.5649819502239405,0.6109857011090802,1.0527776547191787,0.9496585365853658,0.4763173670426897,0.0,0.9690126582278481,50,516,7939,772094,no_split,narrow,individual,1,0.7379693984985352
0,0.0,0.437083634714673,0.3562576463824394,0.3776407142851184,0.3936551135579277,0.40851296182044616,0.4240192907948648,0.4398206875908656,0.4581250664914255,0.4849993068123973,0.5316949406658207,1.2038432812210929,0.9712727272727273,0.45780807314584754,0.0,0.922316384180791,50,516,8026,772094,no_split,narrow,individual,1,0.7341718673706055
1,1.0,0.4759008368556031,0.37224058025309364,0.3994246382708876,0.4220318051010682,0.44224857825675906,0.4641839405332829,0.48652049371710226,0.5125624556928441,0.5438289773556814,0.592280654130612,1.2773603621192215,0.8795767195767196,0.45780807314584754,0.0,0.922316384180791,50,516,8026,772094,no_split,narrow,individual,1,0.7341718673706055
0,0.0,0.43963892785046416,0.3419402374736889,0.3674158637484715,0.38732195232972155,0.40468409497026714,0.4228308490966062,0.4425153923403619,0.466642031693168,0.49920352718880207,0.5571275856253903,1.0231195650170004,0.9453475935828877,0.45418738478777243,0.0,0.8915616438356164,50,516,8311,772094,no_split,narrow,individual,1,0.7343928813934326
1,1.0,0.4694714378623604,0.3572456194689869,0.3876967437427772,0.41181450479928405,0.4334916933776495,0.4557422628961868,0.47923673333006084,0.5064316873426266,0.5423381844957367,0.6009926425926987,1.3564978223713358,0.8350561797752809,0.45418738478777243,0.0,0.8915616438356164,50,516,8311,772094,no_split,narrow,individual,1,0.7343928813934326
0,0.0,0.38583897849253446,0.32186101298284553,0.34161504981309443,0.355753619120102,0.3676214806719395,0.3797250104726748,0.39255526831820303,0.40612748652495284,0.42552244868432626,0.454162218100726,0.8321698628884854,0.9893264248704663,0.41147160761904666,0.0,0.9194579945799458,50,516,8446,772094,no_split,narrow,individual,1,0.7232089042663574
1,1.0,0.43958011569527883,0.3463306601026835,0.37176808084542,0.391464647099568,0.4122104804663681,0.4315770429575423,0.45147741623840704,0.4756337448145368,0.5032274208575184,0.5455273768610895,0.8296326062998345,0.8428409090909091,0.41147160761904666,0.0,0.9194579945799458,50,516,8446,772094,no_split,narrow,individual,1,0.7232089042663574
0,0.0,0.47984017115701794,0.39385988368360125,0.4165793042840313,0.43377766162214404,0.4503686769221866,0.4662683654262446,0.48319278427508194,0.5029174943219687,0.5327912687364171,0.5837206550405213,1.0723575707505075,0.9830150753768844,0.49356953023978695,0.0,0.9603636363636363,50,516,8521,772094,no_split,narrow,individual,1,0.7248742580413818
1,1.0,0.5082584681831794,0.4126294868116232,0.43972889709392704,0.4601719357466233,0.47841529605943667,0.4972368224043379,0.5186080112562652,0.5418442596053372,0.5709192965486873,0.6181062583314454,0.9960305310061239,0.9361290322580645,0.49356953023978695,0.0,0.9603636363636363,50,516,8521,772094,no_split,narrow,individual,1,0.7248742580413818
0,0.0,0.5487063116389629,0.4250085043749817,0.45583671029712836,0.4800875098691886,0.5028085133154303,0.5282155282815489,0.5541955436666465,0.5860537425013878,0.6267140006038433,0.6990833777951171,1.3705530764014562,0.9907103825136612,0.5660966164348815,0.0,0.9788538681948424,50,516,8704,772094,no_split,narrow,individual,1,0.7312710285186768
1,1.0,0.5852678560592981,0.44917177777311573,0.4854274066583932,0.5151240065716685,0.5438262433104095,0.5705502927150037,0.5999832040413291,0.6306855912612578,0.6709241017573021,0.7388012829349839,1.5842065307438455,0.9657831325301205,0.5660966164348815,0.0,0.9788538681948424,50,516,8704,772094,no_split,narrow,individual,1,0.7312710285186768
0,0.0,0.4454680852114277,0.3553503348949537,0.37842504146138506,0.3967364456776764,0.4119787103595095,0.4287971357221832,0.44826813342656924,0.47095640191949456,0.5019578310653169,0.5562392843406189,1.156698547327574,0.9939130434782608,0.46645781780343354,0.0,0.9738659793814433,50,516,8755,772094,no_split,narrow,individual,1,0.7255582809448242
1,1.0,0.4904626501047882,0.3853149555353466,0.41552684155525127,0.438669375645373,0.4603479816747385,0.4804191691036558,0.5034682931801904,0.527640051448133,0.5585893774904698,0.6066904012988825,1.0152455343257984,0.950939226519337,0.46645781780343354,0.0,0.9738659793814433,50,516,8755,772094,no_split,narrow,individual,1,0.7255582809448242
0,0.0,0.4641737187933489,0.3620869149967199,0.3867400363171033,0.4066690400306551,0.42477008548617345,0.4454324151637464,0.46897727252997023,0.49846222303939025,0.5351069437677602,0.5932508522292893,1.0808257858774246,0.9871153846153846,0.47093742092158836,0.0,0.94475,50,516,8785,772094,no_split,narrow,individual,1,0.7222144603729248
1,1.0,0.4782647648938478,0.3849341452094996,0.41293615289917135,0.4340088005478874,0.4523226948061247,0.46958314999572626,0.4883037663390737,0.5101359449081295,0.5373927476417681,0.5797671424130231,0.9560227110421746,0.8988541666666666,0.47093742092158836,0.0,0.94475,50,516,8785,772094,no_split,narrow,individual,1,0.7222144603729248
0,0.0,0.40132798104962475,0.3252749390280216,0.34387837416833544,0.35785366393642054,0.3703812770663661,0.3830696446341929,0.398773122124956,0.4175805848034913,0.44383503285391146,0.49358379156364257,1.0761630122044485,0.9764893617021276,0.4274910412822381,0.0,0.8886889460154241,50,516,8788,772094,no_split,narrow,individual,1,0.7291049957275391
1,1.0,0.45196196329085153,0.34431177929000856,0.3716317701611382,0.3946663516739438,0.4176830907821383,0.4402680761422615,0.46256720400069357,0.48906306067199057,0.522138451225339,0.5720065169237701,1.2956829291567227,0.8065671641791045,0.4274910412822381,0.0,0.8886889460154241,50,516,8788,772094,no_split,narrow,individual,1,0.7291049957275391
0,0.0,0.424271796678013,0.37068048265808273,0.38598681076701796,0.3982334561544834,0.40880447002494635,0.4185121843074485,0.4293880315158888,0.4415333163580845,0.4573313771342994,0.4829619353925019,0.8026117643864789,0.9958888888888889,0.4472548789159714,0.0,0.9569398907103825,50,516,161753,772094,no_split,narrow,individual,1,0.7159812450408936
1,1.0,0.4694965714043183,0.39399197184576024,0.4166413153870686,0.43389389315521415,0.4494535115640406,0.46485527771341306,0.48075341094592317,0.49807403767894554,0.5195573384540227,0.5493388569820936,0.8123717397608391,0.9192473118279569,0.4472548789159714,0.0,0.9569398907103825,50,516,161753,772094,no_split,narrow,individual,1,0.7159812450408936
0,0.0,0.44389808968034783,0.3686235588489296,0.38845099425053936,0.40499027599048043,0.4193033216416818,0.43398873154781403,0.44924943162665887,0.4670556650716565,0.4896474136821694,0.5312954635850798,0.999341509483277,0.9974226804123711,0.4690002152984857,0.0,0.9847872340425532,50,516,337788,772094,no_split,narrow,individual,1,0.7250871658325195
1,1.0,0.49575742612221524,0.3958495766574196,0.4245551046755851,0.448110481718496,0.4688559318452358,0.4889889874429312,0.5104192693750499,0.5336459924209812,0.5611578173947936,0.6026819072508328,0.9679090803811856,0.9713186813186813,0.4690002152984857,0.0,0.9847872340425532,50,516,337788,772094,no_split,narrow,individual,1,0.7250871658325195
