,congruency,mean_rt,qu10_rt,qu20_rt,qu30_rt,qu40_rt,qu50_rt,qu60_rt,qu70_rt,qu80_rt,qu90_rt,qu100_rt,mean_acc,mean_rt_overall,nonconvergent_trials,accuracy_overall,n_posterior_draws,condition,id,slurm_id,split,spacing,estimation_level,number_parts,time_post_sampling_sec
0,0.0,0.4233582247395527,0.3409266953633025,0.3604671624788911,0.37497838066408945,0.38931167973992903,0.4049842176726286,0.4229052047945968,0.445898785915866,0.4786248112557892,0.5284441165220917,1.2427894339418095,0.9856842105263158,0.4347380081851629,0.0,0.969047619047619,50,556,1108,772018,no_split,wide,individual,1,0.46379780769348145
1,1.0,0.44623885315679007,0.36929619773515554,0.3887533193158801,0.40506950120170604,0.41986099299066787,0.43481233197049357,0.4503137981620231,0.46839084641099704,0.49332684612146005,0.5345183378758438,1.0982234706685379,0.9522340425531914,0.4347380081851629,0.0,0.969047619047619,50,556,1108,772018,no_split,wide,individual,1,0.46379780769348145
0,0.0,0.4487891050092956,0.36467315049360594,0.38554151121366237,0.4018953938943853,0.4173065021969755,0.4327394368335926,0.45070871871288243,0.47211699206391,0.5002991558823773,0.5523642275536865,1.1121882458655898,0.9754497354497355,0.46093112828327865,0.0,0.9578947368421052,50,556,1507,772018,no_split,wide,individual,1,0.45572805404663086
1,1.0,0.4729460099522986,0.37848616457429285,0.40283491889536327,0.4216745744675637,0.43876889510471034,0.45663585154238806,0.47678567151739365,0.502149656266557,0.5339477934953974,0.5869889397796467,1.21998976392356,0.9405235602094241,0.46093112828327865,0.0,0.9578947368421052,50,556,1507,772018,no_split,wide,individual,1,0.45572805404663086
0,0.0,0.45562197575237195,0.3589561399374838,0.3824306598367131,0.40186665292647056,0.41941675422284624,0.4378261881812958,0.4574790208537472,0.48282031080583704,0.5162268942535729,0.5745629368036314,1.1214588897200766,0.9912631578947368,0.46951817986946254,0.0,0.9822047244094488,50,556,1538,772018,no_split,wide,individual,1,0.4532968997955322
1,1.0,0.4833416289911756,0.3834135757490683,0.4095414496487578,0.43028554584794093,0.44936795793578654,0.4690574019277172,0.48937441714360064,0.5139520878527983,0.5468195459277508,0.6001727577152747,1.3224440015524772,0.9731937172774869,0.46951817986946254,0.0,0.9822047244094488,50,556,1538,772018,no_split,wide,individual,1,0.4532968997955322
0,0.0,0.4669460871492549,0.373879585410272,0.39783781089575354,0.4156489439609092,0.43296969853722783,0.45057953961514063,0.47050403885802033,0.4938145056183005,0.5270157353690471,0.5787691907768947,1.0478264880179524,0.9921739130434782,0.47783001794806085,0.0,0.9845405405405405,50,556,1582,772018,no_split,wide,individual,1,0.448671817779541
1,1.0,0.48859691723290116,0.40105530077671636,0.4235926306380009,0.4414905998380778,0.45943434713138764,0.476100995425328,0.49374444464453815,0.5153188676798047,0.5439692318800654,0.5924125056522868,1.2028504480564899,0.9769892473118279,0.47783001794806085,0.0,0.9845405405405405,50,556,1582,772018,no_split,wide,individual,1,0.448671817779541
0,0.0,0.44567784049226655,0.36524570742601403,0.3852581894141678,0.40056482498394336,0.41453576313648244,0.4289306000907355,0.4457783159119199,0.4659278365484655,0.49359219838339713,0.5458248919566601,1.113127806148831,0.9769633507853404,0.4598226156080263,0.0,0.9550913838120104,50,556,1583,772018,no_split,wide,individual,1,0.44779253005981445
1,1.0,0.47389372002005825,0.3851682402986799,0.4078043698764328,0.425951447376867,0.4425813766408028,0.4593316994358486,0.47844705400219023,0.501679168262595,0.5312156529415737,0.5797498151932096,0.9922470455020158,0.9333333333333333,0.4598226156080263,0.0,0.9550913838120104,50,556,1583,772018,no_split,wide,individual,1,0.44779253005981445
0,0.0,0.563412518579168,0.39950035352351143,0.4347621498321357,0.4640316019907872,0.49421667549106124,0.5245193880804022,0.5597959598085274,0.6056461365667792,0.6720346848870129,0.7816362797949541,1.5575464498964653,0.9807909604519774,0.5783266661687033,0.0,0.9703846153846154,50,556,1597,772018,no_split,wide,individual,1,0.45003628730773926
1,1.0,0.5924432657587982,0.42921411401120546,0.46713471747681684,0.4975438866377924,0.5293602251844294,0.560406292512982,0.5950892782396416,0.6373112907671271,0.6984794667831655,0.7971105309075113,1.603356584101902,0.9605347593582888,0.5783266661687033,0.0,0.9703846153846154,50,556,1597,772018,no_split,wide,individual,1,0.45003628730773926
0,0.0,0.4137724265721089,0.33911778872004694,0.3597924756277308,0.37546179475657016,0.3894629876864723,0.403709792851724,0.4191460937457725,0.4367693819571807,0.46048557136905965,0.49920066811642827,0.9464420693003426,0.9950526315789474,0.4240212068937369,0.0,0.9910817941952507,50,556,1601,772018,no_split,wide,individual,1,0.4448392391204834
1,1.0,0.4343242135662728,0.3532739538092367,0.37566280681370773,0.39333754609659755,0.40873889662058543,0.42512936355145914,0.44162259965001743,0.4621675805724078,0.48706392721564135,0.5258210965508318,0.8916121978319713,0.9870899470899471,0.4240212068937369,0.0,0.9910817941952507,50,556,1601,772018,no_split,wide,individual,1,0.4448392391204834
0,0.0,0.4835389706956278,0.3525111560529129,0.3825354792869598,0.4075146085985304,0.43088110563188853,0.45470226337084374,0.48383896400181553,0.5180375716164899,0.5636415008942065,0.6506784398786082,1.3332135382058343,0.9792631578947368,0.49842054166982896,0.0,0.9683684210526315,50,556,1614,772018,no_split,wide,individual,1,0.4456801414489746
1,1.0,0.5133021126440301,0.3770835625804251,0.4104979413368179,0.43750120762554323,0.4631582793143617,0.48939454246282044,0.5193041311110803,0.5546170750083167,0.6010190429399124,0.6760618904089574,1.530789756196442,0.9574736842105264,0.49842054166982896,0.0,0.9683684210526315,50,556,1614,772018,no_split,wide,individual,1,0.4456801414489746
0,0.0,0.430171714230681,0.3767655439626657,0.39239682994305636,0.40417002568126087,0.41475207949265114,0.42516254115982843,0.4359550540959409,0.4479600186487287,0.4637695059223993,0.48806692654380623,0.7434001918725056,0.9987368421052631,0.43970209996718157,0.0,0.9960629921259843,50,556,161753,772018,no_split,wide,individual,1,0.4485166072845459
1,1.0,0.4491825883961612,0.3905004495069341,0.4077471317830026,0.42057958242231136,0.43199553432762483,0.44337092097448383,0.45593771402493793,0.469977812710577,0.48828474500703906,0.5141942541743739,0.8424230114946981,0.9934031413612565,0.43970209996718157,0.0,0.9960629921259843,50,556,161753,772018,no_split,wide,individual,1,0.4485166072845459
0,0.0,0.4719058704366042,0.37397759402819547,0.39629126273681287,0.41399114329184117,0.43143582572737893,0.4506201642173354,0.47212794295992844,0.49931887853058876,0.5350027528711312,0.5990143723876263,1.0829868044284214,0.9874468085106383,0.48390565021569804,0.0,0.9789445910290238,50,556,1638,772018,no_split,wide,individual,1,0.44506239891052246
1,1.0,0.49571695177836644,0.3982038133845448,0.4222855677055014,0.4412032320429448,0.4603640383754483,0.47874174699682853,0.4985329407915112,0.5239413309503317,0.5576884645901301,0.6149759776445368,1.1912040291123993,0.9705759162303665,0.48390565021569804,0.0,0.9789445910290238,50,556,1638,772018,no_split,wide,individual,1,0.44506239891052246
0,0.0,0.4005254212290633,0.3303555211711402,0.34815280190507764,0.3637397383046969,0.3758864484456914,0.3893342873617247,0.4035670974947927,0.42037392662320433,0.4438123392178335,0.48246549047370385,1.009779035651399,0.984,0.4121774216473247,0.0,0.9671240105540897,50,556,1657,772018,no_split,wide,individual,1,0.44470930099487305
1,1.0,0.4238910728614499,0.3450550110527097,0.3662649870947557,0.3825051588266007,0.39730720439882605,0.4128042804263855,0.42927000942846116,0.44965357732366984,0.47609047669762156,0.5172585612169309,1.025541738234731,0.9501587301587302,0.4121774216473247,0.0,0.9671240105540897,50,556,1657,772018,no_split,wide,individual,1,0.44470930099487305
0,0.0,0.4692227374124681,0.37828967985228684,0.3990870708136566,0.4154193958777258,0.4313638599040605,0.4485768383473826,0.46819259886682524,0.4933341171685239,0.5275204238678501,0.5847431480452541,1.2323789131525669,0.9923404255319149,0.4825679359684611,0.0,0.9874074074074074,50,556,1663,772018,no_split,wide,individual,1,0.4453608989715576
1,1.0,0.4957726587501804,0.3995574217111733,0.42222367993301724,0.4421578120671401,0.45857532437649434,0.4781171651744658,0.4988648080354668,0.524026077100512,0.5579174819529512,0.61212186465853,1.2095327766547939,0.9825263157894737,0.4825679359684611,0.0,0.9874074074074074,50,556,1663,772018,no_split,wide,individual,1,0.4453608989715576
0,0.0,0.5120389268420211,0.39870399499928855,0.4273466553125934,0.4486175028305751,0.4687124063301668,0.49022210987473613,0.5136254867298459,0.5440596919008303,0.5837083568391093,0.6517809005668717,1.2996461049926247,0.9786021505376344,0.5258786034786683,0.0,0.9671313672922252,50,556,1761,772018,no_split,wide,individual,1,0.4463794231414795
1,1.0,0.5396442711493443,0.4249544867232571,0.45488905006258157,0.47781924594740294,0.49882591111849095,0.5212915156438346,0.5450859889961813,0.5750504293421634,0.6114038993001966,0.6760419783782788,1.318603339645557,0.9557219251336898,0.5258786034786683,0.0,0.9671313672922252,50,556,1761,772018,no_split,wide,individual,1,0.4463794231414795
0,0.0,0.45031636825907667,0.349591874375709,0.37598021996658115,0.3970662791812558,0.41538801900379874,0.43370752438123816,0.4540170753772624,0.4775633028376789,0.5098622957935952,0.5706222084782984,1.1155094717763576,0.9591623036649215,0.4610894257679413,0.0,0.9346073298429319,50,556,1768,772018,no_split,wide,individual,1,0.44596123695373535
1,1.0,0.47186248327680586,0.36793986755951497,0.39673883150122274,0.41777878810143243,0.43705666290024897,0.45687770476750067,0.47723865506694324,0.5039964807206102,0.5381197948586254,0.5926426708794763,1.1134127557173314,0.9100523560209424,0.4610894257679413,0.0,0.9346073298429319,50,556,1768,772018,no_split,wide,individual,1,0.44596123695373535
0,0.0,0.3789326417079682,0.3068054593880705,0.3273611893813959,0.34243297312163634,0.35644870893646685,0.37012659509675483,0.3837972836584572,0.40041264734661774,0.42290551732332493,0.4602028191204275,0.8873284809085086,0.9709574468085106,0.38781379952041806,0.0,0.9524468085106383,50,556,1813,772018,no_split,wide,individual,1,0.44490861892700195
1,1.0,0.39669495733286814,0.3193117944497676,0.34077935148562294,0.3573266976981929,0.372624371509592,0.3870014903548674,0.40286196043476025,0.4216372377747125,0.4461944872340876,0.48679805675376825,0.8323409286731142,0.933936170212766,0.38781379952041806,0.0,0.9524468085106383,50,556,1813,772018,no_split,wide,individual,1,0.44490861892700195
0,0.0,0.3949215703495704,0.31656879716287495,0.33598276100364755,0.3517133610752886,0.3658352783749356,0.3797859439567406,0.39705694843548955,0.4170263799481115,0.4451736850410049,0.49244446807640063,0.9368390084681167,0.9888421052631579,0.4030355648522705,0.0,0.9819947506561679,50,556,1821,772018,no_split,wide,individual,1,0.447251558303833
1,1.0,0.4111070777083595,0.33139774306174125,0.3524731096780938,0.3691158759289696,0.38295769179284744,0.39816162751076334,0.414765889692054,0.4344353770415726,0.46192616145832543,0.5057192901429695,0.9537054133209977,0.9751832460732984,0.4030355648522705,0.0,0.9819947506561679,50,556,1821,772018,no_split,wide,individual,1,0.447251558303833
0,0.0,0.4435310691554299,0.3494326994573053,0.37382662040157305,0.3925535076196574,0.41004451742991765,0.4280628024035583,0.4481378859872247,0.4717799034822224,0.5035231068853145,0.5582472441185887,1.0242124825868604,0.9691099476439791,0.4492326570960181,0.0,0.9759574468085106,50,556,275,772018,no_split,wide,individual,1,0.44594526290893555
1,1.0,0.455119161402247,0.3642588440234959,0.3895694971733394,0.4068996946630702,0.4241194042207497,0.4422399569308303,0.4612364174914573,0.48413858274868465,0.5128838075175456,0.5629563123172577,1.1148563718619868,0.983027027027027,0.4492326570960181,0.0,0.9759574468085106,50,556,275,772018,no_split,wide,individual,1,0.44594526290893555
0,0.0,0.3842611134927139,0.3115478338413258,0.32848792679263344,0.34127357872148895,0.35369604183933845,0.3668460435009975,0.38248882836272313,0.4018944013775201,0.42923121119937474,0.4785110330352391,0.9924888151044722,0.9871276595744681,0.39416844813817636,0.0,0.9796286472148541,50,556,3286,772018,no_split,wide,individual,1,0.4468109607696533
1,1.0,0.4040233630236099,0.32352382542564073,0.34271162154662305,0.3575531756496154,0.3718472087177568,0.38752367805040844,0.4065111449265892,0.42740681553019166,0.4567729798424559,0.5071476741318681,1.1201998629685153,0.9721693121693121,0.39416844813817636,0.0,0.9796286472148541,50,556,3286,772018,no_split,wide,individual,1,0.4468109607696533
0,0.0,0.4600567587273432,0.3664007206707316,0.3899303693251881,0.4081421442591582,0.4251014182254047,0.44348721319004847,0.4619803350378621,0.4848057238503994,0.517454482864657,0.575531355557179,1.4243870135222694,0.9886772486772487,0.47298103558282784,0.0,0.9813192612137203,50,556,3292,772018,no_split,wide,individual,1,0.4758784770965576
1,1.0,0.4858372899285465,0.3825388143881031,0.409687049671423,0.4310697000725273,0.4492551307158671,0.4692097563683936,0.4913144208698176,0.5183946591585853,0.5515716107735228,0.6074579958791186,1.042797471619864,0.974,0.47298103558282784,0.0,0.9813192612137203,50,556,3292,772018,no_split,wide,individual,1,0.4758784770965576
0,0.0,0.4516326486830008,0.3689331797384563,0.39201141436307246,0.40899333746743516,0.4246980953894501,0.44044746421003167,0.45732521511936913,0.4769719342236761,0.5032892820480492,0.548545374792639,1.1725326361225088,0.9945263157894737,0.4624216882362589,0.0,0.990498687664042,50,556,337788,772018,no_split,wide,individual,1,0.48096537590026855
1,1.0,0.47315424067143713,0.38678232337981155,0.4111709185173517,0.42961655975436136,0.44622059260837665,0.4634273482262883,0.4809291622278528,0.5017085397698939,0.527993732432172,0.5706598795754231,1.1120823047981445,0.9864921465968587,0.4624216882362589,0.0,0.990498687664042,50,556,337788,772018,no_split,wide,individual,1,0.48096537590026855
0,0.0,0.41236480949019666,0.32987979482908725,0.3491516351553393,0.36406020015650775,0.3789395241803551,0.3935214546920538,0.41045956266175093,0.4329747940135259,0.4644157215120017,0.5178989444335981,1.2145464491763505,0.9826737967914438,0.4269931854023809,0.0,0.970268817204301,50,556,3487,772018,no_split,wide,individual,1,0.45995378494262695
1,1.0,0.4417797059190212,0.3488722450112874,0.37204105178043606,0.39095758849321094,0.40804545649122576,0.4256003750448991,0.44431680407115026,0.46879595608019503,0.49957170283103935,0.5546095606303325,1.0233241661628008,0.9577297297297297,0.4269931854023809,0.0,0.970268817204301,50,556,3487,772018,no_split,wide,individual,1,0.45995378494262695
0,0.0,0.4092178068014906,0.34731076198863875,0.3658093984541865,0.3798028687070342,0.3916316424237302,0.40387676759686747,0.41623108672937453,0.4303386818074109,0.44791966158129504,0.4759398066088259,0.7656512030172048,0.9936125654450262,0.42035210398818534,0.0,0.9811640211640211,50,556,3580,772018,no_split,wide,individual,1,0.45729565620422363
1,1.0,0.43172456795962216,0.3643035387795614,0.3850685528211978,0.40001762863640355,0.413794749418673,0.42718834289674834,0.4406749653772431,0.45602183386594236,0.4744426653793793,0.5051951364537897,0.7514801240049237,0.9684491978609626,0.42035210398818534,0.0,0.9811640211640211,50,556,3580,772018,no_split,wide,individual,1,0.45729565620422363
0,0.0,0.4723600530842147,0.3726810955645992,0.3986334550955266,0.41953613754784597,0.43769853405124937,0.45710619650478235,0.47674628291950394,0.5003527690631798,0.5324800339615497,0.5940083730839388,1.4453295525503886,0.9714285714285714,0.4873601177962138,0.0,0.9421546961325967,50,556,3625,772018,no_split,wide,individual,1,0.4674358367919922
1,1.0,0.5025268498939017,0.39483840951251187,0.4253167903706187,0.4482843387837581,0.47098932804206667,0.4907253616984717,0.5126823375559706,0.5375271563681394,0.5700257269414752,0.6229506935792701,1.1391061766389479,0.9125555555555556,0.4873601177962138,0.0,0.9421546961325967,50,556,3625,772018,no_split,wide,individual,1,0.4674358367919922
0,0.0,0.5443433398731921,0.4251046791265099,0.4565086750817753,0.4813629835545869,0.5039650822561016,0.5267046458746001,0.5524396712403662,0.5822286462583599,0.6212413095841518,0.6866059579259768,1.3278002052037257,0.9969633507853403,0.5583168470212294,0.0,0.9949606299212599,50,556,3754,772018,no_split,wide,individual,1,0.463301420211792
1,1.0,0.57236389894373,0.46305003698413905,0.4921065637116026,0.5159199743389686,0.5363968040615421,0.5572370562830178,0.580531584243345,0.6078503212571856,0.6442326540992195,0.6998735431980051,1.2065298892572296,0.9929473684210526,0.5583168470212294,0.0,0.9949606299212599,50,556,3754,772018,no_split,wide,individual,1,0.463301420211792
0,0.0,0.41848848076557993,0.34055259827266804,0.3610125342343805,0.3765140291540641,0.3903112570353623,0.4049014363690209,0.42158858123573273,0.4411177268704928,0.4661058754064002,0.5104067504159145,1.022344147219861,0.977037037037037,0.4274382443914656,0.0,0.9672295514511874,50,556,3910,772018,no_split,wide,individual,1,0.45403146743774414
1,1.0,0.43634090399826775,0.35614214654782567,0.3770919130780675,0.39263056345598213,0.4084415954106974,0.42387303272459215,0.4404041288305735,0.4615560541459262,0.48708288421919543,0.5314113930976023,0.9629930473823499,0.9574736842105264,0.4274382443914656,0.0,0.9672295514511874,50,556,3910,772018,no_split,wide,individual,1,0.45403146743774414
0,0.0,0.4097069112156978,0.3388228131573563,0.3536676103702446,0.366498598148997,0.3784414971966598,0.3922446106226704,0.4090907063743192,0.4307280237877166,0.4604467440604507,0.5050026190456692,0.9538853789623041,0.9897894736842106,0.42024084955067137,0.0,0.9741424802110817,50,556,4222,772018,no_split,wide,individual,1,0.4560866355895996
1,1.0,0.43083052300911046,0.36726279308523946,0.38389039632760885,0.39662687351258763,0.4081491064534463,0.42010162729375644,0.4332620081600671,0.44926268132201497,0.469622692854659,0.5054637588493248,0.9564069563094768,0.9584126984126984,0.42024084955067137,0.0,0.9741424802110817,50,556,4222,772018,no_split,wide,individual,1,0.4560866355895996
0,0.0,0.45502487697140265,0.3539192777667666,0.37920596043115734,0.3982861410616101,0.41534989042441317,0.43436871978464486,0.454795221264752,0.48072763498405785,0.5154160966496282,0.5842116489826629,1.2949070258361157,0.968042328042328,0.46969508150813477,0.0,0.9350793650793651,50,556,4264,772018,no_split,wide,individual,1,0.46382570266723633
1,1.0,0.4843652860448669,0.37593952582338425,0.40446085692942235,0.4265788014816518,0.4476131056755648,0.46855249031767277,0.4925545675198365,0.5201826690701946,0.553264486013263,0.6108584109140045,1.300477634308529,0.9021164021164021,0.46969508150813477,0.0,0.9350793650793651,50,556,4264,772018,no_split,wide,individual,1,0.46382570266723633
0,0.0,0.4378505212518588,0.37701815229248553,0.392761307204352,0.4052308800929835,0.41649737407371257,0.42754427951632556,0.4402188362225505,0.45475419977331616,0.4748021962411876,0.5093410541215556,0.8591258159796756,0.9919148936170212,0.44575372093324084,0.0,0.9851733333333333,50,556,5281,772018,no_split,wide,individual,1,0.459505558013916
1,1.0,0.4536991837145233,0.38792460220551855,0.40481888653623876,0.4184810832574778,0.43082667277524794,0.4440388688523092,0.4586858253944475,0.47541977794874685,0.49621077392955304,0.5310189424000548,0.9454955589994736,0.9783957219251337,0.44575372093324084,0.0,0.9851733333333333,50,556,5281,772018,no_split,wide,individual,1,0.459505558013916
0,0.0,0.46896241490408386,0.37455579231156816,0.396618400837896,0.4148402380102385,0.4316806938278141,0.4499879768468428,0.4698547462183393,0.49560935171413334,0.5318693638777165,0.5873061066447894,1.2059481612566927,0.9975661375661375,0.4779112937125377,0.0,0.9967466666666667,50,556,5332,772018,no_split,wide,individual,1,0.47426867485046387
1,1.0,0.48700450927596656,0.39490862390064185,0.4161780809232206,0.4343930640282142,0.45247542862666623,0.46966365720682024,0.48951362903529644,0.5141035190638699,0.5473438438406419,0.6018186147063287,1.1019933604218766,0.9959139784946237,0.4779112937125377,0.0,0.9967466666666667,50,556,5332,772018,no_split,wide,individual,1,0.47426867485046387
0,0.0,0.450414042036383,0.3616049052259365,0.38441561372789024,0.4017898169760372,0.4176971429631436,0.4343637406459459,0.45166029198418894,0.47324384664663416,0.5045020046249634,0.5549163654543272,1.102434452723061,0.9791578947368421,0.465168905700076,0.0,0.9627968337730871,50,556,5575,772018,no_split,wide,individual,1,0.47040605545043945
1,1.0,0.48000183742548175,0.3850772294770829,0.40969697392154986,0.4288231510347673,0.44778268250208186,0.4657133302584979,0.4856992926854738,0.510328213302057,0.5416062002757535,0.5901591739951508,1.1238111741628667,0.9463492063492064,0.465168905700076,0.0,0.9627968337730871,50,556,5575,772018,no_split,wide,individual,1,0.47040605545043945
0,0.0,0.4490150994750452,0.3633159567248779,0.3822075821996453,0.397565582657282,0.41245596967798037,0.4278442506554161,0.44602312596998445,0.46932400434965477,0.5021376280527841,0.5620088190999051,1.1693238137426385,0.9549726775956284,0.4593998995373954,0.0,0.9494878706199461,50,556,5731,772018,no_split,wide,individual,1,0.4688553810119629
1,1.0,0.4695085081087257,0.3787482527966415,0.40034350789223494,0.41813461870865387,0.4350302724271405,0.4526254255507882,0.4722373563044266,0.4964845502559583,0.5294774417309974,0.5808672405568945,1.112889328171063,0.9441489361702128,0.4593998995373954,0.0,0.9494878706199461,50,556,5731,772018,no_split,wide,individual,1,0.4688553810119629
0,0.0,0.426624866096233,0.34970974041157477,0.37285450640752593,0.3909530736315774,0.40588252086475995,0.42041626177343794,0.43544783279823945,0.4523298513116265,0.47423772150161286,0.5091828942927243,0.9214831361421534,0.9958510638297873,0.44433296889829005,0.0,0.9824933687002653,50,556,5761,772018,no_split,wide,individual,1,0.47538208961486816
1,1.0,0.46194737803472763,0.3783217321092805,0.4032890355777228,0.4233026224074413,0.4395514703090794,0.45637069075980974,0.47373288267810776,0.492725122826123,0.516421831521815,0.5517548011515803,0.845681237969003,0.9692063492063492,0.44433296889829005,0.0,0.9824933687002653,50,556,5761,772018,no_split,wide,individual,1,0.47538208961486816
0,0.0,0.42607479758746997,0.33915431217381836,0.3613090359968629,0.3790884615506944,0.39465786015638865,0.4113980529137591,0.428021400425811,0.44978847071627237,0.47970638123500664,0.5322215088664114,1.0683343308636082,0.9288541666666666,0.43263525100685435,0.0,0.9119791666666667,50,556,5803,772018,no_split,wide,individual,1,0.4691653251647949
1,1.0,0.43919570442623873,0.34621629752264416,0.36981445833856724,0.3884261449039535,0.4055926246918326,0.42318973396383325,0.44263719015702135,0.4669015940303368,0.49932460729725714,0.5513535408913796,1.0729764278708025,0.8951041666666667,0.43263525100685435,0.0,0.9119791666666667,50,556,5803,772018,no_split,wide,individual,1,0.4691653251647949
0,0.0,0.5008466935537894,0.38489548010674546,0.4148790761244779,0.43706206960665384,0.45833854320478373,0.48087114984685697,0.5044114156908518,0.5346043451348548,0.5753459451256612,0.6427349267868394,1.408274627561617,0.9813541666666666,0.5180720394398218,0.0,0.9616753926701571,50,556,5815,772018,no_split,wide,individual,1,0.4877896308898926
1,1.0,0.5354787047562336,0.4193810261166441,0.45225371743597087,0.4760923245562261,0.4981899594477778,0.5193573432547467,0.5425514632114583,0.5699353061284641,0.6069100145198313,0.6696459249410054,1.227122634658471,0.9417894736842105,0.5180720394398218,0.0,0.9616753926701571,50,556,5815,772018,no_split,wide,individual,1,0.4877896308898926
0,0.0,0.42042670951750793,0.3561913696058416,0.371940901340636,0.3838791554795519,0.39593605962074224,0.40808906800467454,0.421805154920082,0.43786870606071415,0.4612999448257148,0.5011838909096179,0.9238041103702217,0.997578947368421,0.432435471101186,0.0,0.9947089947089947,50,556,6055,772018,no_split,wide,individual,1,0.47356247901916504
1,1.0,0.44457198546766924,0.36988643012595773,0.3879833563331092,0.40282109745702877,0.4170284447305309,0.4318549194851862,0.4479270706699453,0.467683592749581,0.4929649071708506,0.5338429906020108,1.0466805253251754,0.9918085106382979,0.432435471101186,0.0,0.9947089947089947,50,556,6055,772018,no_split,wide,individual,1,0.47356247901916504
0,0.0,0.46479058523255434,0.35708097322679805,0.3826425328998536,0.4024520298410784,0.4214517111023483,0.44089392428523194,0.463922822334531,0.49277019047964493,0.5337708062425169,0.6027956283913496,1.234415639065966,0.977945945945946,0.476817472665499,0.0,0.96343163538874,50,556,6109,772018,no_split,wide,individual,1,0.45079946517944336
1,1.0,0.4886524416819605,0.37864454700957145,0.4061540379705763,0.4277076087334021,0.4473588296103433,0.4685004465009197,0.49153140273305607,0.5197110986690103,0.5590296861871226,0.6226869584536479,1.1570743648727357,0.9491489361702128,0.476817472665499,0.0,0.96343163538874,50,556,6109,772018,no_split,wide,individual,1,0.45079946517944336
0,0.0,0.39529707568766004,0.33308962992205954,0.34961411893299654,0.36256575245391387,0.37389707317134746,0.38466937267534945,0.3978254621344366,0.41257268679852527,0.4318573509991504,0.4671594983065958,0.9588773154196245,0.9936125654450262,0.4098887231105818,0.0,0.9841253263707572,50,556,6214,772018,no_split,wide,individual,1,0.45050811767578125
1,1.0,0.4244043723698424,0.3478180521264321,0.3668875676007434,0.38289283312458106,0.39751968120032727,0.4116877986083536,0.42821969572288227,0.4475773394081859,0.47416642365558237,0.5166204498686521,1.3792037379294089,0.9746875,0.4098887231105818,0.0,0.9841253263707572,50,556,6214,772018,no_split,wide,individual,1,0.45050811767578125
0,0.0,0.44659003143146386,0.34228795654292266,0.3702484440200957,0.39245195312538,0.41281963615928297,0.4337522452410385,0.4558170021597439,0.4829891413504175,0.5166230787402604,0.5693259684131061,1.0652790680290942,0.9451851851851852,0.4562577633328599,0.0,0.9151322751322751,50,556,6253,772018,no_split,wide,individual,1,0.44903063774108887
1,1.0,0.46592549523425575,0.36714147715402984,0.3976752076414398,0.42040384864091634,0.44130626144736496,0.4604522076750657,0.47910276428629484,0.5012551434042675,0.5288071576283565,0.5686584539378192,0.9518794933130749,0.8850793650793651,0.4562577633328599,0.0,0.9151322751322751,50,556,6253,772018,no_split,wide,individual,1,0.44903063774108887
0,0.0,0.45173142829044693,0.37041636355784535,0.39387282788748496,0.4113211206292646,0.4268654548818932,0.4420399879770762,0.45938313045510254,0.47885620430362497,0.5029621069794381,0.5431502848040843,0.9719191781899911,0.9894736842105263,0.46412018458130333,0.0,0.9784776902887139,50,556,6262,772018,no_split,wide,individual,1,0.4469742774963379
1,1.0,0.47644407827377827,0.39417155137000975,0.41866520505379784,0.43658114940327414,0.45350716469372626,0.4684855334348085,0.48543085770823474,0.504666135385252,0.5288671269509656,0.5671982247983649,1.0776748325417829,0.9675392670157068,0.46412018458130333,0.0,0.9784776902887139,50,556,6262,772018,no_split,wide,individual,1,0.4469742774963379
0,0.0,0.49401593725896054,0.3961502867099454,0.4207291641578687,0.4398194109540056,0.45652813032124184,0.4748423571230733,0.4954376528763969,0.5221320188775727,0.5576837208746022,0.6153262851583615,1.245485724738242,0.9968421052631579,0.5109128462819218,0.0,0.9939473684210526,50,556,6361,772018,no_split,wide,individual,1,0.4455530643463135
1,1.0,0.5278097553048832,0.43124644039709487,0.45754072021452447,0.4778420235981486,0.49602413708945386,0.515594720694102,0.5352314612233893,0.558041056561637,0.5876354876824489,0.6403348799580049,1.1163292045989934,0.9910526315789474,0.5109128462819218,0.0,0.9939473684210526,50,556,6361,772018,no_split,wide,individual,1,0.4455530643463135
0,0.0,0.4170627789017249,0.3478689145554066,0.3670548347697576,0.38149114089263114,0.39440892775231146,0.40739918005277875,0.42165027122138526,0.4383658583230628,0.46098415663261827,0.49718242101707993,0.9096409311176217,0.9916842105263158,0.4252641122768872,0.0,0.9871240105540897,50,556,6427,772018,no_split,wide,individual,1,0.4489715099334717
1,1.0,0.43350883895033077,0.36242170807287566,0.3824637939558325,0.39750013119202604,0.41176936361952376,0.42531062594767477,0.43967367894681586,0.4569248133311496,0.4790819404528296,0.5144741674410569,0.9315526248649028,0.9825396825396825,0.4252641122768872,0.0,0.9871240105540897,50,556,6427,772018,no_split,wide,individual,1,0.4489715099334717
0,0.0,0.4615003723092715,0.3829695830363001,0.4038439570028571,0.4204573735187602,0.4349392733327013,0.4497535478426691,0.4661936754866116,0.4842396921524858,0.5099363090428346,0.5533020376306386,1.1708069316846317,0.984468085106383,0.4730360966245832,0.0,0.9688533333333333,50,556,6583,772018,no_split,wide,individual,1,0.4464890956878662
1,1.0,0.4846335093052173,0.3976291714318062,0.4217628271400097,0.44078347757951664,0.4570019599897727,0.47321664611091196,0.4921308411455734,0.51229714837224,0.538915805786322,0.5827383725400234,0.9912741319853848,0.9531550802139037,0.4730360966245832,0.0,0.9688533333333333,50,556,6583,772018,no_split,wide,individual,1,0.4464890956878662
0,0.0,0.44762892666102094,0.36059290193221955,0.3852349505561649,0.4046651591068856,0.4201160564788238,0.43610140985512547,0.45293332358488203,0.47377455066512686,0.501664417846241,0.5481048902988002,0.9642986652078903,0.9809523809523809,0.4592129075457502,0.0,0.9654545454545455,50,556,6634,772018,no_split,wide,individual,1,0.452193021774292
1,1.0,0.4710473528820412,0.3786724214259619,0.4046932703441368,0.4253850894306687,0.44300871333415515,0.46105826620679413,0.48123950267945803,0.502612758539818,0.5302119120483829,0.5754246616170486,1.2230834443576164,0.9496216216216217,0.4592129075457502,0.0,0.9654545454545455,50,556,6634,772018,no_split,wide,individual,1,0.452193021774292
0,0.0,0.4561849549138594,0.3762277591835888,0.3978758403867295,0.41438669100333164,0.4282716389761946,0.44309250605856987,0.45896397550864104,0.4793762428018632,0.5069306372287342,0.5512110490748875,1.0251545890182183,0.99375,0.46821795621006906,0.0,0.9809399477806788,50,556,6844,772018,no_split,wide,individual,1,0.44612812995910645
1,1.0,0.4803139575130652,0.4060820149057833,0.4267858813550206,0.4430634531464274,0.4575708611689516,0.4710496272554089,0.4853312434235427,0.5038528025606674,0.5271502592377748,0.5662185054615583,1.0504391623324434,0.9680628272251309,0.46821795621006906,0.0,0.9809399477806788,50,556,6844,772018,no_split,wide,individual,1,0.44612812995910645
0,0.0,0.44286484512735297,0.35269128858427934,0.378304493750231,0.3960724150897126,0.4129218232024754,0.42906637294255956,0.4474662706341386,0.46799843193853413,0.4959758222417452,0.5445289586808763,1.0178625389369744,0.9896842105263158,0.4652213785291267,0.0,0.957696335078534,50,556,7624,772018,no_split,wide,individual,1,0.4609684944152832
1,1.0,0.48734503137463187,0.3857211953983801,0.4147298301787926,0.43610395512504974,0.45600741570288855,0.4762544490753482,0.49698396046504084,0.5217292644619695,0.5529668473376539,0.6026767807855974,1.0547447345382983,0.9260416666666667,0.4652213785291267,0.0,0.957696335078534,50,556,7624,772018,no_split,wide,individual,1,0.4609684944152832
0,0.0,0.4167735377728521,0.33701955494506636,0.3574286130738481,0.3734258752388239,0.38866642560936365,0.40269577386725175,0.41958410296306253,0.4394683731173798,0.4677936306653257,0.5149780896965798,1.0356682954103693,0.9734375,0.42606328322515524,0.0,0.9563874345549738,50,556,7756,772018,no_split,wide,individual,1,0.46459388732910156
1,1.0,0.4354508154716934,0.35320777517577057,0.3750036657812995,0.3919130545914376,0.4082327555468283,0.4240879656547753,0.4422028865785748,0.46190789706317076,0.4879919535923784,0.5313731664649585,0.9499901846806873,0.9391578947368421,0.42606328322515524,0.0,0.9563874345549738,50,556,7756,772018,no_split,wide,individual,1,0.46459388732910156
0,0.0,0.4264601002894484,0.3312494401131063,0.36012317746693145,0.37977564122710944,0.3972808070355494,0.41550177064647675,0.43573209767080634,0.4585473607257677,0.4870413028887515,0.5322068502278026,0.9989837375423642,0.984468085106383,0.4392457043044278,0.0,0.9603753351206434,50,556,7768,772018,no_split,wide,individual,1,0.46437835693359375
1,1.0,0.4522386424385689,0.35507537938595807,0.3839658036008468,0.40563850963929415,0.42578585050444107,0.44325439701806374,0.46328199709607215,0.4855888404235958,0.5143846606245055,0.5579631180788491,0.9891422571615576,0.9358918918918919,0.4392457043044278,0.0,0.9603753351206434,50,556,7768,772018,no_split,wide,individual,1,0.46437835693359375
0,0.0,0.4000721706228305,0.3134284314455766,0.3369601962016898,0.3551458702749615,0.3715534996107528,0.38681470497246007,0.4056621430978252,0.42656245212098537,0.45522390332592094,0.5025674000237235,1.0721007087814904,0.9471204188481676,0.4121786447721331,0.0,0.9206806282722513,50,556,7807,772018,no_split,wide,individual,1,0.46364569664001465
1,1.0,0.42428511892143583,0.33430025789790146,0.36078746439643167,0.38095293960653265,0.39852307812849747,0.4152921364608637,0.4324574187057052,0.4539798291312081,0.4799054789214728,0.5219412162620748,1.1761097833576748,0.8942408376963351,0.4121786447721331,0.0,0.9206806282722513,50,556,7807,772018,no_split,wide,individual,1,0.46364569664001465
0,0.0,0.4020688318728589,0.3274445849355362,0.34433160559118836,0.35831991221588033,0.3714402823661812,0.3852714465767858,0.400920141029565,0.4204504455999508,0.4471021102460314,0.4991107858301757,0.9638737852098463,0.983125,0.4132154108784136,0.0,0.969501312335958,50,556,7813,772018,no_split,wide,individual,1,0.4652135372161865
1,1.0,0.4245389197094534,0.34452272953832697,0.3638470034717424,0.37944504893720504,0.39447276188263813,0.4094194324639967,0.4268770733913048,0.44781981628176915,0.47399487720046235,0.5236104784474426,1.0104258956644276,0.9556613756613757,0.4132154108784136,0.0,0.969501312335958,50,556,7813,772018,no_split,wide,individual,1,0.4652135372161865
0,0.0,0.4206972057003232,0.35931302141767235,0.37544864921029103,0.3891934948136093,0.40091149045998276,0.4129426301679461,0.42643616151714836,0.4407836123075725,0.45991235528868785,0.49080152770512175,0.7808204159704825,0.9919371727748691,0.42614164915905917,0.0,0.9867539267015707,50,556,7828,772018,no_split,wide,individual,1,0.4661281108856201
1,1.0,0.4315860926177951,0.3652515629024097,0.3850153284089904,0.3992284901687783,0.41209375475626253,0.42487887292117943,0.4383203219451432,0.45340642001449666,0.4736928251235008,0.5053721020802494,0.7942793100193274,0.9815706806282722,0.42614164915905917,0.0,0.9867539267015707,50,556,7828,772018,no_split,wide,individual,1,0.4661281108856201
0,0.0,0.5542023635269764,0.40484553643394566,0.4339647470566968,0.46025832566918007,0.48529518343942957,0.5122265687296319,0.546812964168126,0.5927136244406996,0.657126065366487,0.7590073453083338,1.5020242275565237,0.98,0.5671026719630009,0.0,0.971436170212766,50,556,7840,772018,no_split,wide,individual,1,0.4795553684234619
1,1.0,0.580140951612245,0.42775757912435763,0.46185760798625836,0.4894005856267657,0.5175054233028129,0.5466564242918736,0.5797544359176238,0.6224986343593963,0.6793906702149998,0.774490367833066,1.5081924240686135,0.9627807486631016,0.5671026719630009,0.0,0.971436170212766,50,556,7840,772018,no_split,wide,individual,1,0.4795553684234619
0,0.0,0.4588213475212412,0.3716144890440619,0.39403174622212067,0.4118324732699478,0.4297892258605266,0.4468740851328533,0.46429818179336135,0.4862361270331826,0.5177895868140996,0.5626725225654727,1.0477557051591593,0.9998952879581152,0.47098462654336776,0.0,0.9996858638743455,50,556,7924,772018,no_split,wide,individual,1,0.4811434745788574
1,1.0,0.4831479055654942,0.40168033366071926,0.42398913770955543,0.4408474838650145,0.4568404200211552,0.47264993192002835,0.4898812892211057,0.5095357391826871,0.5359974306397648,0.5771094309740248,0.9845753766243195,0.9994764397905759,0.47098462654336776,0.0,0.9996858638743455,50,556,7924,772018,no_split,wide,individual,1,0.4811434745788574
0,0.0,0.4481041998953018,0.36847674286856524,0.3905424366499481,0.4076643330169111,0.42237420809116955,0.43777968997634154,0.45355344007900517,0.47297882349026665,0.4968581198095816,0.5400198021644896,0.9202765924476731,0.995978835978836,0.46257402672378556,0.0,0.9906631299734748,50,556,7939,772018,no_split,wide,individual,1,0.47647690773010254
1,1.0,0.47712082071625056,0.3926169736436621,0.41744854859191616,0.43518917163447574,0.45216323514380163,0.46841406355474735,0.4862596002789234,0.5058994498071856,0.5305344904992693,0.5686912713472347,1.1443477901971837,0.9853191489361702,0.46257402672378556,0.0,0.9906631299734748,50,556,7939,772018,no_split,wide,individual,1,0.47647690773010254
0,0.0,0.4542092591515628,0.3544818948008209,0.37848671591146843,0.39772035091645686,0.4151227183023454,0.43322112958746684,0.4552161716659926,0.4794756449340362,0.5128601823334589,0.5813809763366417,1.4985864743777102,0.9688764044943821,0.4691102630549077,0.0,0.9446280991735537,50,556,8026,772018,no_split,wide,individual,1,0.4768352508544922
1,1.0,0.483447445188937,0.37689137212350426,0.4054563696323203,0.42817608753653486,0.44809489642103967,0.46871854440105215,0.49181131661204713,0.5167260183795487,0.5502807507195224,0.6073072335465912,1.225313332344498,0.9212972972972973,0.4691102630549077,0.0,0.9446280991735537,50,556,8026,772018,no_split,wide,individual,1,0.4768352508544922
0,0.0,0.47106976879486656,0.36859258719729016,0.39267440621365346,0.41210768820637744,0.43078326672632644,0.44943470211262393,0.4717283813763682,0.49960032590790326,0.53659667446801,0.6016633934560274,1.3451059023740535,0.9881052631578947,0.48362184064209346,0.0,0.9773684210526316,50,556,808,772018,no_split,wide,individual,1,0.4788346290588379
1,1.0,0.4961739124893204,0.3972733440601068,0.4213807167527528,0.4413395476740768,0.4607657179458388,0.4811242544457084,0.5026135367688561,0.5270624222997983,0.559352633232079,0.6130626194990969,1.1407309332958544,0.9666315789473684,0.48362184064209346,0.0,0.9773684210526316,50,556,808,772018,no_split,wide,individual,1,0.4788346290588379
0,0.0,0.44533498689797435,0.34913827666399355,0.3753733496506519,0.39622023948448165,0.4144946762342496,0.43200508239628765,0.4507092100002078,0.47328626129570905,0.5031330926360539,0.5543392971855781,1.2343897994260902,0.9459685863874345,0.4554054624381738,0.0,0.9210966057441253,50,556,8311,772018,no_split,wide,individual,1,0.4787781238555908
1,1.0,0.4654234875849348,0.36096743872808235,0.3898873527643937,0.4120537864047319,0.4328610923949919,0.45254875232410824,0.4734452084261043,0.4986972122777742,0.5315616149904782,0.5841401225013875,1.0528281474723642,0.8963541666666667,0.4554054624381738,0.0,0.9210966057441253,50,556,8311,772018,no_split,wide,individual,1,0.4787781238555908
0,0.0,0.46440369461417724,0.3813098518151719,0.40124735372481146,0.41712756763135,0.43177942005568964,0.4470365521784029,0.46306878190527856,0.4842241757185649,0.5164353632712504,0.5703381656608784,1.1467504096022296,0.9773958333333334,0.4754844355509645,0.0,0.9666666666666667,50,556,833,772018,no_split,wide,individual,1,0.47666072845458984
1,1.0,0.4869226197437771,0.39662285270482867,0.4178398753414557,0.4363762332467915,0.4525803366938873,0.46969137465151106,0.4895005200952689,0.5131620787283887,0.5455539194860132,0.5987004426556157,1.166508830481319,0.9555913978494623,0.4754844355509645,0.0,0.9666666666666667,50,556,833,772018,no_split,wide,individual,1,0.47666072845458984
0,0.0,0.5484114614613228,0.3865036769212275,0.4198522292251993,0.44771431502584463,0.47434133478340734,0.5031083230508989,0.5380678922646098,0.5860741578765205,0.6560005749677068,0.7714047253117386,1.5641125450380036,0.956304347826087,0.570181462758047,0.0,0.9295135135135135,50,556,837,772018,no_split,wide,individual,1,0.46009039878845215
1,1.0,0.5917173780193226,0.42661132956032155,0.46513204806663094,0.4975875481932745,0.527920880691284,0.5586299976459381,0.5952606387886713,0.6360719716797578,0.6946825970345215,0.798559104099558,1.5743840823749318,0.903010752688172,0.570181462758047,0.0,0.9295135135135135,50,556,837,772018,no_split,wide,individual,1,0.46009039878845215
0,0.0,0.3950332468572689,0.3260823048876269,0.34530763575081674,0.3598309624953154,0.3731617411634291,0.3862224868538517,0.39999562856455295,0.4158039779849914,0.43790109049595216,0.47398556349221543,0.9041207711062454,0.9908900523560209,0.4064664154876875,0.0,0.9813684210526316,50,556,8446,772018,no_split,wide,individual,1,0.46766209602355957
1,1.0,0.4180205700295392,0.3422330212906216,0.3646710022889665,0.38050068258023567,0.3956189274617306,0.41020153758692446,0.42571156217068995,0.44443435227944283,0.4676832123529307,0.5004072143117669,0.9467028914026833,0.9717460317460317,0.4064664154876875,0.0,0.9813684210526316,50,556,8446,772018,no_split,wide,individual,1,0.46766209602355957
0,0.0,0.42940322524497543,0.3526854631427705,0.37385248148675665,0.3888068016395236,0.40324698987410473,0.41753741429483693,0.4327338791025183,0.45068410341781945,0.47717323062335165,0.5218200849796301,1.085784539418032,0.9734391534391534,0.44024836854825256,0.0,0.9567021276595745,50,556,845,772018,no_split,wide,individual,1,0.4626474380493164
1,1.0,0.45120950268899795,0.3645321692256832,0.3869593286074799,0.40388426207535266,0.4205386752346229,0.4368359439542726,0.45680847657755924,0.4787401382099131,0.5085503387141888,0.5558170021400772,0.9915458154271136,0.9397860962566845,0.44024836854825256,0.0,0.9567021276595745,50,556,845,772018,no_split,wide,individual,1,0.4626474380493164
0,0.0,0.48430903846307305,0.3911054394559189,0.4147008877374128,0.4340473529633507,0.4507104596477854,0.4681918147129214,0.48801574396536357,0.5110878039410264,0.541565501760924,0.598222334235804,1.087206184082308,0.9724607329842931,0.49614114701200435,0.0,0.9557894736842105,50,556,8521,772018,no_split,wide,individual,1,0.46495866775512695
1,1.0,0.5080984630588079,0.40929353182531314,0.4357193081273719,0.456704618232323,0.4751177532452642,0.49386782654643613,0.5150105524565544,0.539051791390808,0.570976881277435,0.6243165414319596,1.2850133048160715,0.938941798941799,0.49614114701200435,0.0,0.9557894736842105,50,556,8521,772018,no_split,wide,individual,1,0.46495866775512695
0,0.0,0.5632547299869122,0.4186833489655444,0.4505829432451955,0.4774937703786361,0.5037861967547861,0.5319986887257694,0.5649628553482069,0.6036715593586099,0.6566285351146398,0.748389826935777,1.423434471898662,0.9690217391304348,0.5696120547128103,0.0,0.9773655913978495,50,556,8704,772018,no_split,wide,individual,1,0.4707190990447998
1,1.0,0.5758341172104976,0.44007341623403606,0.4747087816447968,0.49936181069233504,0.5241588046091136,0.5496524535996508,0.5772002510169014,0.6127236630251064,0.6603290658405637,0.7440581454426569,1.5093648560223454,0.985531914893617,0.5696120547128103,0.0,0.9773655913978495,50,556,8704,772018,no_split,wide,individual,1,0.4707190990447998
0,0.0,0.44672804981889097,0.3604293292862018,0.3811714202467662,0.3973899796209367,0.41368138083286543,0.43040043620428386,0.44956718325722106,0.4725177802171773,0.5035907335079273,0.552606642724219,1.2901065980856787,0.9986956521739131,0.4573538843945482,0.0,0.997041095890411,50,556,8755,772018,no_split,wide,individual,1,0.4670448303222656
1,1.0,0.46815583777532677,0.38171140591361363,0.4033320205966367,0.4211885352822361,0.4374074113706659,0.45456350536686174,0.47320339262883215,0.4951186278167346,0.5232657077476146,0.5711364048961135,1.1785467465286632,0.9953591160220995,0.4573538843945482,0.0,0.997041095890411,50,556,8755,772018,no_split,wide,individual,1,0.4670448303222656
0,0.0,0.4549894609125891,0.3625217339077866,0.3863890253798401,0.40591636051138924,0.4230454039363165,0.4404851778983655,0.45938382524580074,0.4816044237672051,0.513378380813201,0.5656306447128099,1.1769610196303781,0.9740625,0.464795509648892,0.0,0.9566666666666667,50,556,8785,772018,no_split,wide,individual,1,0.474057674407959
1,1.0,0.47460155838519485,0.38113463657420604,0.4066385317293258,0.4261059097170981,0.44425290728766564,0.4616270047105101,0.480547557325085,0.5034897620272131,0.5345140152013842,0.5832819970046441,1.1491423153635252,0.9392708333333334,0.464795509648892,0.0,0.9566666666666667,50,556,8785,772018,no_split,wide,individual,1,0.474057674407959
0,0.0,0.4195498008333687,0.330416818364699,0.3526560520128659,0.3702075376696718,0.3870837468901785,0.40300169659690344,0.4209371731652527,0.44349761028647294,0.4742965801103702,0.5292999217242973,1.0446678486758696,0.9810582010582011,0.4309672146431738,0.0,0.9684880636604775,50,556,8788,772018,no_split,wide,individual,1,0.4731132984161377
1,1.0,0.44244535937749924,0.34606240931980237,0.37254783216567283,0.39277244335547473,0.4100394212258032,0.42759319006586405,0.4475944163715709,0.47242942260163906,0.5044081313164633,0.5570356608150251,0.953402847087718,0.9558510638297872,0.4309672146431738,0.0,0.9684880636604775,50,556,8788,772018,no_split,wide,individual,1,0.4731132984161377
0,0.0,0.46488224870589956,0.3621493406890303,0.38470443431489415,0.40280938109759173,0.42066000252966945,0.440322773644974,0.4618200760310394,0.4884620920951452,0.5291524294300601,0.5987923624936475,1.3302247184722165,0.9728042328042328,0.4836863906782791,0.0,0.956063829787234,50,556,916,772018,no_split,wide,individual,1,0.4754910469055176
1,1.0,0.5026916464685453,0.3816317274161609,0.4082474315134306,0.4311988227896923,0.4531657069483446,0.47771221731054414,0.5035640380345323,0.5352957005666837,0.583825040297998,0.659216518317534,1.4011543571836396,0.9391443850267379,0.4836863906782791,0.0,0.956063829787234,50,556,916,772018,no_split,wide,individual,1,0.4754910469055176
0,0.0,0.41502725864514933,0.33732947535513963,0.356218115720716,0.3708903249992017,0.38484690219065376,0.39896196127231776,0.4150199980480352,0.43483229122678396,0.46305876722376405,0.5123655151157975,1.1569265617011948,0.9772631578947368,0.428162081502597,0.0,0.9561154855643045,50,556,985,772018,no_split,wide,individual,1,0.4748728275299072
1,1.0,0.4412281356539847,0.35255178629316747,0.3749004452567719,0.39256867175385046,0.40974523310157274,0.426379589277257,0.4443401906226706,0.4676558191648438,0.49850199289696784,0.5492740899385037,1.1303514509893566,0.9350785340314136,0.428162081502597,0.0,0.9561154855643045,50,556,985,772018,no_split,wide,individual,1,0.4748728275299072
0,0.0,0.44767716442906996,0.35887921819797325,0.3807409146811078,0.39771832127322526,0.41351597878758356,0.42981047548188855,0.4466215779856331,0.4680212351184834,0.4988553260934748,0.5582341741348792,1.2197880430618708,0.9890731707317073,0.47076867200260153,0.0,0.9725125628140704,50,556,275,772018,no_split,narrow,individual,1,0.47350406646728516
1,1.0,0.4952959209796686,0.3885687796881125,0.4166267137639539,0.4375462282661374,0.4586950634176689,0.4799348325396857,0.5021638843211347,0.5285919789575311,0.5641396191607879,0.6212212396986256,1.2281436029349233,0.9549222797927461,0.47076867200260153,0.0,0.9725125628140704,50,556,275,772018,no_split,narrow,individual,1,0.47350406646728516
0,0.0,0.46597532627539745,0.367725238835906,0.3915663405044329,0.41061348532904296,0.42964208311733243,0.448202827517479,0.4701081412844463,0.4974131573017439,0.5327604722586906,0.5865829644810775,1.0312684865022903,0.9930476190476191,0.47854293603865095,0.0,0.9751515151515151,50,556,808,772018,no_split,narrow,individual,1,0.4719266891479492
1,1.0,0.49273217286813065,0.4069312960746787,0.4312877079024391,0.4504649458624747,0.46676188352306314,0.48285375087207844,0.5003990700431219,0.5196277215532684,0.546338189688965,0.591022146717763,1.1081128344965399,0.9549462365591398,0.47854293603865095,0.0,0.9751515151515151,50,556,808,772018,no_split,narrow,individual,1,0.4719266891479492
0,0.0,0.46241086792982566,0.38343015881522163,0.40566367194547026,0.4219075348889912,0.4363508534324631,0.45069269026258274,0.4668508268824586,0.48595921775516476,0.5102625304899063,0.5525808505234324,1.1139046720942674,0.9767,0.4771726292614649,0.0,0.94528,50,556,833,772018,no_split,narrow,individual,1,0.47249555587768555
1,1.0,0.49404321364048126,0.4035206527632426,0.42918015441190427,0.44882453871132505,0.4666704881205553,0.4844771847490803,0.5027013477950869,0.5242135505238827,0.5515777455843816,0.5945944067433498,0.9959439478802427,0.9093714285714286,0.4771726292614649,0.0,0.94528,50,556,833,772018,no_split,narrow,individual,1,0.47249555587768555
0,0.0,0.5660488200945362,0.3799250753623097,0.42010026491322994,0.4518146524244926,0.48185285139970513,0.5155389186976886,0.5569822607841979,0.6106180892281025,0.6881521511031946,0.8219627419095343,1.5291965851015366,0.9516230366492147,0.5932165331033606,0.0,0.920904255319149,50,556,837,772018,no_split,narrow,individual,1,0.4750542640686035
1,1.0,0.6212653611286876,0.42923320692448463,0.47548284814326036,0.5143665699498355,0.5477766049455086,0.5834384704959501,0.6252748074793664,0.6763777432846098,0.7448308862901123,0.86690338308281,1.5658092036275117,0.8891891891891892,0.5932165331033606,0.0,0.920904255319149,50,556,837,772018,no_split,narrow,individual,1,0.4750542640686035
0,0.0,0.43127822050225784,0.35457667380703944,0.37572055896080614,0.3923590514529777,0.40702928418888956,0.42138337284547267,0.4362487398594088,0.4547306094543828,0.4785259661560246,0.5186614272233797,1.1047129709132617,0.9810416666666667,0.4437717584274866,0.0,0.9542780748663101,50,556,845,772018,no_split,narrow,individual,1,0.4696996212005615
1,1.0,0.4569517544804752,0.37305810342671913,0.3983545879466718,0.4176720518312398,0.4336277032568333,0.4495930833566059,0.4660529200755096,0.4848439507143732,0.509269214267902,0.5478916955246095,0.9822288141349483,0.9260439560439561,0.4437717584274866,0.0,0.9542780748663101,50,556,845,772018,no_split,narrow,individual,1,0.4696996212005615
0,0.0,0.47149157781101003,0.360771492378221,0.3833192929878099,0.4005516233995676,0.4200577118821714,0.4416730636731797,0.46496330721009077,0.4968537085632052,0.5412529410699604,0.6208005891195433,1.3291907871144348,0.9886033519553072,0.49614171343495866,0.0,0.9729508196721312,50,556,916,772018,no_split,narrow,individual,1,0.4745140075683594
1,1.0,0.5197372978022677,0.3865532464250248,0.4189996412613845,0.44481673675431466,0.46841895519725507,0.4934717664098289,0.5224527755299875,0.5581781132344493,0.6066110184240115,0.6891427934161967,1.3592723767091526,0.9579679144385027,0.49614171343495866,0.0,0.9729508196721312,50,556,916,772018,no_split,narrow,individual,1,0.4745140075683594
0,0.0,0.4144157609512486,0.3422829157077659,0.3628222381223135,0.37709119804939234,0.39040619717957226,0.40387766931508584,0.41760672581264374,0.434970385208947,0.45798196470404196,0.495189279666162,1.2331562910417135,0.9814689265536723,0.43498199630060713,0.0,0.9342547425474255,50,556,985,772018,no_split,narrow,individual,1,0.4752206802368164
1,1.0,0.4539414945132971,0.36437139630735477,0.3887735123500692,0.40759779240717003,0.42342748512369766,0.4406029742338151,0.4595441320818993,0.4823746401010921,0.5124955355859176,0.5611862072404714,1.004685512907717,0.8907291666666667,0.43498199630060713,0.0,0.9342547425474255,50,556,985,772018,no_split,narrow,individual,1,0.4752206802368164
0,0.0,0.411223173305524,0.33894138976895044,0.3580210945398146,0.37259347684387384,0.38634490318074605,0.39934887388931084,0.41327820591078246,0.4297853069575078,0.4526085021461168,0.49404259712660475,1.1020352977473635,0.9853409090909091,0.4392105860006791,0.0,0.9325789473684211,50,556,1108,772018,no_split,narrow,individual,1,0.4787724018096924
1,1.0,0.4633565891102247,0.37022125445549126,0.39452397903706665,0.4152549483765106,0.43387087284874915,0.4520107284671663,0.4715094747826247,0.4951103446899809,0.5239093563146113,0.5689969524417388,1.1155020504993562,0.8870588235294118,0.4392105860006791,0.0,0.9325789473684211,50,556,1108,772018,no_split,narrow,individual,1,0.4787724018096924
0,0.0,0.4398195822573019,0.3532212394330872,0.3789655385215591,0.39936153071213265,0.41529362791952856,0.43084851765171567,0.44719344618554274,0.46734503801950167,0.4921780088864221,0.5334006388724858,1.0868756355333113,0.9771859296482412,0.4591662698345328,0.0,0.9153316953316953,50,556,1507,772018,no_split,narrow,individual,1,0.4765200614929199
1,1.0,0.47767584112236433,0.37785078240455117,0.40850718147696313,0.4308419811579762,0.45184579767854555,0.470494268460697,0.49036721445177034,0.5121138940832183,0.5401590236649216,0.5854982108957464,0.9628266837296505,0.8561538461538462,0.4591662698345328,0.0,0.9153316953316953,50,556,1507,772018,no_split,narrow,individual,1,0.4765200614929199
0,0.0,0.4550701132397568,0.36551007516646045,0.3898352639108002,0.40858083314960153,0.42485748613909224,0.44155612670287464,0.4593942133478888,0.48122022250295865,0.5090688030388129,0.5591176519316499,1.1443190010263349,0.9876344086021506,0.4721471962816256,0.0,0.9686387434554974,50,556,1538,772018,no_split,narrow,individual,1,0.46086597442626953
1,1.0,0.4883529995764602,0.38578740556080504,0.4132789372539826,0.43544746909941984,0.45561716810718733,0.47495208642412806,0.4958034614312491,0.5207099213848347,0.5554103551251892,0.6071115504650153,1.1322736113392748,0.9506122448979591,0.4721471962816256,0.0,0.9686387434554974,50,556,1538,772018,no_split,narrow,individual,1,0.46086597442626953
0,0.0,0.46846252691942547,0.3718478045502319,0.3962509647067068,0.415111414636593,0.4324985290841948,0.4498338626105637,0.46886122871429803,0.4932926460064297,0.5266361747956588,0.5903945455138948,1.2243170853271268,0.9954255319148936,0.4980388127007645,0.0,0.9721857923497268,50,556,1582,772018,no_split,narrow,individual,1,0.4434542655944824
1,1.0,0.5292766875709427,0.429134562279198,0.45860263392481193,0.4807207672619651,0.4998031410273395,0.5190052855816112,0.5388018307359856,0.5611835281339667,0.5925309051582256,0.6389170378318814,1.119003254641513,0.9476404494382022,0.4980388127007645,0.0,0.9721857923497268,50,556,1582,772018,no_split,narrow,individual,1,0.4434542655944824
0,0.0,0.4432277489540456,0.34988090169619557,0.37177003991896096,0.38878692937653625,0.4041990569481597,0.4202605490682111,0.43737002732181685,0.4588901610206964,0.4930485151635389,0.5676472518647652,1.2719802846346484,0.9903517587939699,0.4779405295649833,0.0,0.9391478696741855,50,556,1583,772018,no_split,narrow,individual,1,0.4425678253173828
1,1.0,0.5124797462728662,0.4039004092592675,0.4357637268317282,0.4592306710200505,0.480712775712778,0.4999827290941793,0.520654978702587,0.5448313767206322,0.5775565603046899,0.6320616685598934,1.4598659273294508,0.8882,0.4779405295649833,0.0,0.9391478696741855,50,556,1583,772018,no_split,narrow,individual,1,0.4425678253173828
0,0.0,0.5550579396503257,0.4094273105270358,0.4379143538320913,0.46172800315175794,0.4850227147783909,0.509320269483367,0.5407975161927782,0.5853449650627879,0.6458225089887126,0.7623230274030588,1.6592141336450683,0.966448087431694,0.5745549183981741,0.0,0.9479120879120879,50,556,1597,772018,no_split,narrow,individual,1,0.4447519779205322
1,1.0,0.5942673333752801,0.4411310449055585,0.4749641445337338,0.503416886626539,0.5313828146489523,0.559640454999779,0.5936098390308739,0.6353786208348623,0.6944478262496501,0.7923849035438596,1.5244340714532492,0.929171270718232,0.5745549183981741,0.0,0.9479120879120879,50,556,1597,772018,no_split,narrow,individual,1,0.4447519779205322
0,0.0,0.41877835359759374,0.3338381119510988,0.3577171022593177,0.375819819491424,0.39202827136832613,0.40749578528585584,0.42514143168814783,0.4435330567887877,0.4703033522612855,0.5129526689408936,1.2027832754273664,0.9946448087431694,0.44768153787233467,0.0,0.9650666666666666,50,556,1601,772018,no_split,narrow,individual,1,0.45681142807006836
1,1.0,0.4752298853841971,0.3660731393434081,0.39743065425257884,0.42185280764090627,0.4425148022147933,0.4633364068600486,0.4857874544460921,0.5119710583259287,0.5463953865540023,0.5987895192733015,1.0179815299980717,0.936875,0.44768153787233467,0.0,0.9650666666666666,50,556,1601,772018,no_split,narrow,individual,1,0.45681142807006836
0,0.0,0.4957603349677335,0.3741273231310482,0.4014556375370619,0.4239331630452031,0.44363343704868285,0.4647916060480167,0.490117209163191,0.5233098269363289,0.5718202167277976,0.6615676793973345,1.4426876175117918,0.985049504950495,0.5194767164102925,0.0,0.9613440860215053,50,556,1614,772018,no_split,narrow,individual,1,0.45229625701904297
1,1.0,0.5476573578890979,0.4214301437979443,0.45589072029925226,0.48113841093495024,0.502960320991768,0.5273084796075181,0.5535604256026084,0.5845965455012769,0.6245620528475931,0.6947573319794904,1.58199952934451,0.9331764705882353,0.5194767164102925,0.0,0.9613440860215053,50,556,1614,772018,no_split,narrow,individual,1,0.45229625701904297
0,0.0,0.46288064979821636,0.3721942804905761,0.4001864091363918,0.4204618897851319,0.4376563239766591,0.45486267147178305,0.4729417736047855,0.49330259511726043,0.5186991451872626,0.5590472624920906,1.0885971739469946,0.9959116022099448,0.49413766580767804,0.0,0.9695263157894737,50,556,1638,772018,no_split,narrow,individual,1,0.45406174659729004
1,1.0,0.5225674140373893,0.4131981847388801,0.44521571124846676,0.46847048577661776,0.49028178892552715,0.5122097340830756,0.5356587689188295,0.5609497892759423,0.5955553727809817,0.6464194035253997,1.2754355705405331,0.9455276381909548,0.49413766580767804,0.0,0.9695263157894737,50,556,1638,772018,no_split,narrow,individual,1,0.45406174659729004
0,0.0,0.4089392750867303,0.33515238676288744,0.35589711566562265,0.37194191202823385,0.38547224449002826,0.39917329064521834,0.41371251701805306,0.43047064489267106,0.4534977862517031,0.492686394334221,0.9753690590813371,0.9779591836734693,0.42413555764394195,0.0,0.9366576819407008,50,556,1657,772018,no_split,narrow,individual,1,0.45060014724731445
1,1.0,0.4411553941080189,0.35468918585063286,0.3796926318905296,0.397751305621697,0.41390878345192544,0.4311396406831201,0.4480865406409358,0.4697931578914898,0.49613022284683084,0.5387024603291366,0.9936592884834026,0.8904,0.42413555764394195,0.0,0.9366576819407008,50,556,1657,772018,no_split,narrow,individual,1,0.45060014724731445
0,0.0,0.46031802843021824,0.3768452424971287,0.40036384109685397,0.41687863152007687,0.43241927801364766,0.4473459211650489,0.4639536864900134,0.48288263212851995,0.5105786883122928,0.5573468784686053,1.065809137520752,0.9936410256410256,0.48447629785094204,0.0,0.9730964467005077,50,556,1663,772018,no_split,narrow,individual,1,0.45063066482543945
1,1.0,0.5081489739164754,0.41209939204803625,0.43945677024873636,0.4592822848958538,0.4787121200039014,0.4969556127575001,0.5169471945949989,0.540380393296023,0.5709759115081434,0.617589364722657,1.1480686443950212,0.952964824120603,0.48447629785094204,0.0,0.9730964467005077,50,556,1663,772018,no_split,narrow,individual,1,0.45063066482543945
0,0.0,0.498568553258058,0.39595660743384886,0.42058229787423945,0.4411454729325827,0.4594800025889373,0.47766961825795073,0.49785338758634107,0.5230240208443073,0.560532692795924,0.6276214572356041,1.3486728962672145,0.9819889502762431,0.5196287875863189,0.0,0.9559668508287292,50,556,1761,772018,no_split,narrow,individual,1,0.44542717933654785
1,1.0,0.5406890219145798,0.4218295547822911,0.45346529130828006,0.476725459543921,0.49939592099800084,0.5229912743393561,0.5485836847136878,0.5784363002856039,0.6156998610271996,0.6801492385005394,1.2774751443213497,0.9299447513812155,0.5196287875863189,0.0,0.9559668508287292,50,556,1761,772018,no_split,narrow,individual,1,0.44542717933654785
0,0.0,0.4540717552933247,0.35633186206930073,0.38163264552560006,0.4013441346635069,0.420147952671765,0.43873438523671665,0.4581126532443749,0.4813518949717092,0.513304383206336,0.5690832835726467,1.1165451463999985,0.9741304347826087,0.47335945579874344,0.0,0.9331891891891891,50,556,1768,772018,no_split,narrow,individual,1,0.4468348026275635
1,1.0,0.49243976167507164,0.3803125748648427,0.41202565563612326,0.4361917932526679,0.4574140388248015,0.4806254238413753,0.5032784537014403,0.5301583132173671,0.5640879233863116,0.6193795634519734,1.2348417826499578,0.8926881720430108,0.47335945579874344,0.0,0.9331891891891891,50,556,1768,772018,no_split,narrow,individual,1,0.4468348026275635
0,0.0,0.38471273139252443,0.3057501921779095,0.3293009017965452,0.3456509033688682,0.36206450325259343,0.37724146679554993,0.39319014160152066,0.4117940752868023,0.4339540722548541,0.4707217687333806,0.8410681795650555,0.9789944134078212,0.40202191641558627,0.0,0.9247058823529412,50,556,1813,772018,no_split,narrow,individual,1,0.4455070495605469
1,1.0,0.41791086061624305,0.32622305527147344,0.35429138356885626,0.37406137606428413,0.39128560772320437,0.41073567215499995,0.4297578627485614,0.45188960948648876,0.4780181222286655,0.5188047026523597,0.8447359928826891,0.8748717948717949,0.40202191641558627,0.0,0.9247058823529412,50,556,1813,772018,no_split,narrow,individual,1,0.4455070495605469
0,0.0,0.4071291709111951,0.3188073104480817,0.3409939991482067,0.3573772672471616,0.3727770633142661,0.3886533578958726,0.4051891167236976,0.4280400363496117,0.4601169057797924,0.5180615979391455,1.2165290145225909,0.9890731707317073,0.42945073705964076,0.0,0.9656930693069307,50,556,1821,772018,no_split,narrow,individual,1,0.44359779357910156
1,1.0,0.4524453152527632,0.3510475758215686,0.37773240596358987,0.39915263571001736,0.41904823291614907,0.4382963733268841,0.45968116114262797,0.4849662062264016,0.5165181166115381,0.5697098003925403,1.1922683103656087,0.941608040201005,0.42945073705964076,0.0,0.9656930693069307,50,556,1821,772018,no_split,narrow,individual,1,0.44359779357910156
0,0.0,0.40037070885935994,0.32130299475135915,0.33962081907076436,0.3538272914890374,0.3673437685220765,0.38171750872448795,0.39929196610042467,0.4196528420635308,0.44889002584641136,0.5031830854539981,1.1483728899784753,0.9876243093922652,0.4163775216255349,0.0,0.9716489361702128,50,556,3286,772018,no_split,narrow,individual,1,0.4460322856903076
1,1.0,0.4312351273213178,0.3408720082992909,0.3628039065241088,0.3803955237450304,0.3975262883975344,0.41578776085857094,0.43602242642430433,0.46016631171060046,0.49035107975884484,0.5422836636847548,1.37195229482668,0.9568205128205128,0.4163775216255349,0.0,0.9716489361702128,50,556,3286,772018,no_split,narrow,individual,1,0.4460322856903076
0,0.0,0.47964498323774635,0.3819598836443773,0.405691991712994,0.4250754076822454,0.4426411453117346,0.4601874571803527,0.4790057843689326,0.5037334993148366,0.5386141907701114,0.5976363667975095,1.189898323704036,0.9895454545454545,0.5051033593806766,0.0,0.9662637362637363,50,556,3292,772018,no_split,narrow,individual,1,0.4442720413208008
1,1.0,0.5289367327910794,0.41331722936698284,0.4437614682733114,0.46712829017919216,0.48968579648010463,0.5114965812009507,0.5372807252880838,0.5664305472776827,0.6025655113613065,0.6647203899367693,1.3014494047243323,0.944468085106383,0.5051033593806766,0.0,0.9662637362637363,50,556,3292,772018,no_split,narrow,individual,1,0.4442720413208008
0,0.0,0.4019156878438018,0.3278683536561787,0.3500185349085766,0.3660081106556353,0.38020069203231105,0.3934389183683169,0.407813545262233,0.4235143963525676,0.444831072874011,0.4831501291454588,0.9293645987785905,0.9941176470588236,0.4291736468347006,0.0,0.9388051948051948,50,556,3487,772018,no_split,narrow,individual,1,0.4441232681274414
1,1.0,0.45491727477054944,0.36690095720891197,0.39387369825449153,0.4142022797324716,0.432326492690704,0.4498873270634138,0.4675741506488921,0.48697561573372644,0.5120827774077867,0.5481368578638169,0.917663151053906,0.8865656565656566,0.4291736468347006,0.0,0.9388051948051948,50,556,3487,772018,no_split,narrow,individual,1,0.4441232681274414
0,0.0,0.4138873543207646,0.3578261411757217,0.37512900249920506,0.3884937809667367,0.39954391912909487,0.41053054740612244,0.4214294347434847,0.4331232817570132,0.44900847581121317,0.47200179103747403,0.7572810205914552,0.9876616915422886,0.42728505296607033,0.0,0.9509137055837563,50,556,3580,772018,no_split,narrow,individual,1,0.44760990142822266
1,1.0,0.44123809663294306,0.3768573048885875,0.3961178725834927,0.411150848274756,0.4233603192644609,0.4355385066356704,0.44934107737179185,0.4640255435377632,0.4832057413335218,0.5130287859833325,0.7647244090034137,0.9126424870466321,0.42728505296607033,0.0,0.9509137055837563,50,556,3580,772018,no_split,narrow,individual,1,0.44760990142822266
0,0.0,0.4883268644847771,0.3815298469989143,0.40830568170332343,0.4273746280584299,0.44610575151269083,0.46514220151022423,0.48732313744390154,0.5147193168488522,0.5537922408250858,0.6240122813110713,1.2957561151339367,0.9525806451612904,0.501809025406188,0.0,0.9073480662983425,50,556,3625,772018,no_split,narrow,individual,1,0.44881582260131836
1,1.0,0.5160572181981337,0.40440865959344957,0.4336890014796436,0.45609102177185906,0.47708880406032217,0.49847616211637547,0.5209286865232629,0.548768196044912,0.5851682082757067,0.6501110509243516,1.4703158157251632,0.8595454545454545,0.501809025406188,0.0,0.9073480662983425,50,556,3625,772018,no_split,narrow,individual,1,0.44881582260131836
0,0.0,0.5219744472441163,0.42084381191943504,0.45085352883290675,0.4734879547387324,0.49285853705271376,0.5114567682760166,0.5315212450170475,0.5538993469615427,0.5832754059566279,0.6308900623770521,1.1555931094508007,0.996629213483146,0.5525322204241624,0.0,0.9823848238482384,50,556,3754,772018,no_split,narrow,individual,1,0.44823789596557617
1,1.0,0.5810101451678703,0.45664719542262067,0.49385882914658386,0.5194828700837859,0.5437780971998556,0.5683793806968487,0.594850680756522,0.6245917043169004,0.661669960648999,0.7206835303238227,1.402076912127266,0.9691099476439791,0.5525322204241624,0.0,0.9823848238482384,50,556,3754,772018,no_split,narrow,individual,1,0.44823789596557617
0,0.0,0.41995721158137794,0.3434524141542875,0.3653857617303873,0.38164032639945267,0.3964647438166414,0.41141734594331303,0.4260426097929779,0.44337841524740534,0.46570028210149256,0.5053732718713468,1.001759740075349,0.9961702127659574,0.4362519351270825,0.0,0.9851295336787564,50,556,3910,772018,no_split,narrow,individual,1,0.4480102062225342
1,1.0,0.45172369283714536,0.36625722513713144,0.3906221362257521,0.4093182345557216,0.42611624646998447,0.4423899163429553,0.4593114770489647,0.48060430740338483,0.5073089922478934,0.547094994675517,0.9566584289922639,0.9746464646464646,0.4362519351270825,0.0,0.9851295336787564,50,556,3910,772018,no_split,narrow,individual,1,0.4480102062225342
0,0.0,0.40692343514111406,0.34251000381395097,0.3573114811821846,0.3693796949515448,0.3813988228932777,0.3921919630100019,0.405605264307762,0.4226643921394713,0.44566824727510285,0.4892196947943702,1.0154959331918354,0.9938121546961326,0.42211174507929927,0.0,0.9834736842105263,50,556,4222,772018,no_split,narrow,individual,1,0.4478118419647217
1,1.0,0.4359262380381511,0.3615348591807986,0.38048625305318606,0.39541346064852534,0.4094734963559194,0.42414615982867254,0.439600449379361,0.45940549889525145,0.48433532038074295,0.5259952027455316,0.8593903246440352,0.974070351758794,0.42211174507929927,0.0,0.9834736842105263,50,556,4222,772018,no_split,narrow,individual,1,0.4478118419647217
0,0.0,0.46723887910648737,0.3570251846054974,0.3863796902526465,0.40854352867683397,0.4279938138024064,0.4470734117039957,0.46989218669343363,0.49643275437031825,0.5302846182144653,0.5985739436556735,1.4024790392569484,0.9596969696969697,0.48790558836781756,0.0,0.9099244332493702,50,556,4264,772018,no_split,narrow,individual,1,0.4481987953186035
1,1.0,0.5084684448187894,0.38545893600944514,0.4188294897123199,0.4444816232223624,0.4669786792241559,0.49058432994652235,0.5171538156002755,0.5474301381011512,0.5868705065962436,0.650883990537014,1.321172965072698,0.8604020100502513,0.48790558836781756,0.0,0.9099244332493702,50,556,4264,772018,no_split,narrow,individual,1,0.4481987953186035
0,0.0,0.43143587753485724,0.36244407522581545,0.3822936308938849,0.39731906741606443,0.4107036616713562,0.4242900631465468,0.4382701332301805,0.45342025921194345,0.47338591205968056,0.5064902929679197,0.94391784652658,0.9938624338624339,0.4506034861757486,0.0,0.9780434782608696,50,556,5281,772018,no_split,narrow,individual,1,0.4474472999572754
1,1.0,0.4708419109418293,0.3888574961640285,0.4126315125075673,0.4302336705834378,0.44713162253769184,0.4637426540482247,0.479936218757394,0.49919764938740707,0.5237157843894087,0.5629513546189618,1.0002029913879291,0.9613407821229051,0.4506034861757486,0.0,0.9780434782608696,50,556,5281,772018,no_split,narrow,individual,1,0.4474472999572754
0,0.0,0.45325573422247484,0.36990991697736497,0.39161343318720754,0.40764455105349845,0.4226655182565967,0.43766128494833345,0.4537639148332847,0.47410020537460007,0.5014244470660767,0.5524392661542658,1.2622905851605344,0.9967391304347826,0.48308666131868644,0.0,0.9857837837837837,50,556,5332,772018,no_split,narrow,individual,1,0.44434452056884766
1,1.0,0.5125968257579496,0.41422740622656923,0.44173948457975465,0.4633252889782401,0.48134504753718055,0.5004113026081791,0.5202884309112507,0.5443137875454381,0.5754943345599106,0.6250238927066593,1.1353295962877294,0.9749462365591398,0.48308666131868644,0.0,0.9857837837837837,50,556,5332,772018,no_split,narrow,individual,1,0.44434452056884766
0,0.0,0.4602601403191108,0.3774803607100817,0.4005685328844827,0.4175365107613922,0.4320473740421424,0.44753099223305237,0.46371650921072005,0.4834270483067945,0.5104226352582035,0.5542699377732995,1.1233270729431568,0.9828426395939086,0.4777681221759615,0.0,0.96,50,556,5575,772018,no_split,narrow,individual,1,0.44994139671325684
1,1.0,0.49563896376041533,0.403112075552218,0.43021293821792583,0.4495304267326119,0.4678112170948986,0.4849542752631695,0.5029043897236758,0.5250931331492109,0.5544116272212339,0.5989810359767087,1.1694252877684437,0.9366839378238342,0.4777681221759615,0.0,0.96,50,556,5575,772018,no_split,narrow,individual,1,0.44994139671325684
0,0.0,0.4527916009549816,0.3678171963144325,0.38982735212029823,0.4072918010589985,0.4231976866116831,0.4385513520633002,0.4552032750118005,0.47455444636275484,0.501787755043654,0.5544377967600127,1.1260400912483786,0.9730569948186528,0.4698237055766558,0.0,0.9363775510204082,50,556,5731,772018,no_split,narrow,individual,1,0.4526021480560303
1,1.0,0.48634227940571667,0.39017383696659297,0.41671517785047824,0.43805840135291113,0.45677186398377145,0.47613936885004815,0.49545192895038614,0.5173515152405788,0.5467652173525731,0.591564199796843,1.185125646932728,0.9008040201005025,0.4698237055766558,0.0,0.9363775510204082,50,556,5731,772018,no_split,narrow,individual,1,0.4526021480560303
0,0.0,0.43952692847152547,0.36230555707837053,0.38477325378900445,0.40242139525010495,0.4175825224822378,0.4319937305898762,0.44645776267137005,0.46393597083759064,0.48564964421973555,0.5233679658721441,0.9221616005071283,0.9972826086956522,0.46729417540728674,0.0,0.9621798365122616,50,556,5761,772018,no_split,narrow,individual,1,0.4512951374053955
1,1.0,0.495213155932861,0.4093300989540999,0.4361448132012899,0.4566670047981711,0.47336330434627777,0.4905199326636979,0.5081611371259134,0.5268853707122146,0.5503215511707213,0.5846580345128196,0.8629744124098965,0.9268852459016393,0.46729417540728674,0.0,0.9621798365122616,50,556,5761,772018,no_split,narrow,individual,1,0.4512951374053955
0,0.0,0.4380836934981359,0.33654841395848667,0.363828356134785,0.384149796564123,0.4019540098164568,0.4205342766867931,0.43980389471131476,0.4644086756995521,0.5013867963891104,0.559276346376194,1.1689855900301929,0.9541666666666667,0.45406988077892657,0.0,0.9147425474254742,50,556,5803,772018,no_split,narrow,individual,1,0.45493602752685547
1,1.0,0.46743147014794567,0.3577763496806967,0.38718599441225565,0.408922150228495,0.430343033832781,0.4508703683097608,0.4745323455883366,0.5016993716991986,0.5373579733098023,0.5955756637984305,1.2448989035590452,0.8817910447761194,0.45406988077892657,0.0,0.9147425474254742,50,556,5803,772018,no_split,narrow,individual,1,0.45493602752685547
0,0.0,0.49972643313648635,0.37238032843345636,0.40471146901079375,0.4280904051200501,0.44973861534610277,0.47335308369178064,0.5000149065610782,0.5322156750214665,0.5803755583703153,0.6651703838645796,1.5079607057333642,0.9774129353233831,0.5255126256017623,0.0,0.9330232558139535,50,556,5815,772018,no_split,narrow,individual,1,0.460951566696167
1,1.0,0.5533783497174637,0.42394344799417216,0.46123548803969444,0.48872310082925574,0.5135148058660922,0.5378528851839659,0.5635395073267283,0.594458320838254,0.6317285305589908,0.6985373870305154,1.38135645931199,0.8850537634408602,0.5255126256017623,0.0,0.9330232558139535,50,556,5815,772018,no_split,narrow,individual,1,0.460951566696167
0,0.0,0.42201268911935136,0.35535437350488797,0.37283502172967903,0.38582068272371217,0.39812732037022486,0.41072871433777225,0.42385707262441,0.43955721252790947,0.46104945159992206,0.4975386177609817,1.2168352894277499,0.9976404494382023,0.4522354630164114,0.0,0.9797275204359673,50,556,6055,772018,no_split,narrow,individual,1,0.46359848976135254
1,1.0,0.48069923949089116,0.38863057195067724,0.41308970811346013,0.4323858200075445,0.44969271119011806,0.4683140570563827,0.4888529404794787,0.5115125339433271,0.5426049149346593,0.5901973268439171,1.0610177236767766,0.9628571428571429,0.4522354630164114,0.0,0.9797275204359673,50,556,6055,772018,no_split,narrow,individual,1,0.46359848976135254
0,0.0,0.4752661606140746,0.36673479325688896,0.39241626874107693,0.4121006545092877,0.42971169367898115,0.449036902995966,0.4716009105413333,0.4998961166674841,0.5400554675396056,0.616579479073976,1.3532471776354813,0.9653061224489796,0.49247672227784695,0.0,0.9375956284153005,50,556,6109,772018,no_split,narrow,individual,1,0.4696519374847412
1,1.0,0.5123194874901964,0.39508027388645633,0.42476508017369385,0.44662015185233495,0.46998290481007815,0.49344385192267104,0.5185781819583856,0.5494922578457369,0.5878580674572653,0.6551727459898701,1.2452199305946585,0.9056470588235294,0.49247672227784695,0.0,0.9375956284153005,50,556,6109,772018,no_split,narrow,individual,1,0.4696519374847412
0,0.0,0.4039341188587109,0.33505183279081263,0.3534730467990928,0.36646760608965434,0.3787970783956341,0.39033350018986973,0.4035136240831126,0.4191145702905752,0.44023474082178826,0.4868959342618752,0.9962078956641195,0.9941509433962264,0.4295787204510174,0.0,0.9363069544364508,50,556,6214,772018,no_split,narrow,individual,1,0.4775097370147705
1,1.0,0.4560989913659882,0.37656049413007386,0.4016109966873141,0.41839009026927804,0.4340402241382205,0.4488739209334256,0.4653954824265429,0.4834410841851334,0.5056639102511575,0.5416689992948516,1.084178514189085,0.8764878048780488,0.4295787204510174,0.0,0.9363069544364508,50,556,6214,772018,no_split,narrow,individual,1,0.4775097370147705
0,0.0,0.45840381557705806,0.36472448858483275,0.3904662922068266,0.41087014990877657,0.42717509619825617,0.44553161437430117,0.46537175799872127,0.4872207555550302,0.5153591411762487,0.5685428627593578,1.063619775028265,0.9579787234042553,0.47033301602792044,0.0,0.9243501326259947,50,556,6253,772018,no_split,narrow,individual,1,0.4664297103881836
1,1.0,0.48219909901607977,0.3822539199055809,0.41124139865889475,0.43240530343155853,0.453210627526419,0.47312756571956927,0.4928278179544362,0.51589005991859,0.5453890956598848,0.5935326767548071,1.0870750434381662,0.8908994708994709,0.47033301602792044,0.0,0.9243501326259947,50,556,6253,772018,no_split,narrow,individual,1,0.4664297103881836
0,0.0,0.46005351289062363,0.37759369195984355,0.4033731193562936,0.4215708374691393,0.4379578627655478,0.45395973331660233,0.4707260377574674,0.488135532372861,0.509892394953104,0.5467963949358661,0.8965813436892642,0.9901657458563536,0.481537221069932,0.0,0.95125,50,556,6262,772018,no_split,narrow,individual,1,0.4714493751525879
1,1.0,0.5023316124092626,0.41070921011822803,0.438610049464067,0.4595607984378145,0.4784223714353812,0.49702551770564163,0.514130723978857,0.5358445485307453,0.5618765999294039,0.6011554012826902,0.9649364399513857,0.9135828877005348,0.481537221069932,0.0,0.95125,50,556,6262,772018,no_split,narrow,individual,1,0.4714493751525879
0,0.0,0.4972717154199214,0.40555263016929693,0.429033690530379,0.44685984556198466,0.4640288468789569,0.4801730395547093,0.4993406231016237,0.5229322445697346,0.5564596527283755,0.6099807452347461,1.1683593023751047,0.9958288770053476,0.5176735583006777,0.0,0.981304347826087,50,556,6361,772018,no_split,narrow,individual,1,0.47940564155578613
1,1.0,0.5387517053653263,0.44573689768663105,0.4721256199466106,0.4921933694502652,0.51005381585293,0.5279672929495145,0.5464836282882396,0.5681988888006373,0.5971264517108001,0.6452758924114738,1.0727639636952386,0.9662983425414364,0.5176735583006777,0.0,0.981304347826087,50,556,6361,772018,no_split,narrow,individual,1,0.47940564155578613
0,0.0,0.42052869089749423,0.346821815797012,0.36831068132118977,0.38521553299396916,0.39917241467730086,0.4132817937453206,0.4279449963980795,0.4450234085952762,0.4657672327186185,0.5000602502720796,0.8266895254912083,0.9890710382513661,0.4367241151248518,0.0,0.9565789473684211,50,556,6427,772018,no_split,narrow,individual,1,0.48581600189208984
1,1.0,0.4517685954984886,0.3698061123002628,0.3948424776854885,0.41235655088709855,0.42961523591319706,0.44571384407135695,0.4614916605781036,0.4806123194125916,0.505078986858057,0.5411069792232646,1.0446003286287882,0.9263959390862944,0.4367241151248518,0.0,0.9565789473684211,50,556,6427,772018,no_split,narrow,individual,1,0.48581600189208984
0,0.0,0.46997155743512325,0.38643055290580275,0.40623689537155977,0.4219755239515881,0.4359840708559766,0.45083738997848755,0.4685244868455258,0.48997876968202486,0.5204597029852135,0.5766858375915476,1.1384824515702698,0.9845026178010471,0.4849547460204326,0.0,0.9694459102902375,50,556,6583,772018,no_split,narrow,individual,1,0.48827600479125977
1,1.0,0.5001770280406138,0.4137074617684478,0.4347367981431093,0.45247214827303206,0.46893992960999803,0.48593543475839085,0.5038145413014121,0.5256483047243367,0.5554315778773804,0.6036107449377369,1.1585524756681562,0.9541489361702128,0.4849547460204326,0.0,0.9694459102902375,50,556,6583,772018,no_split,narrow,individual,1,0.48827600479125977
0,0.0,0.44951556089027106,0.36259212819892606,0.388194607334884,0.40653762526879145,0.42251038206321545,0.4386690639132651,0.4558909831221324,0.47526685467922375,0.501724593108771,0.5469283319640685,1.1459858254503048,0.9907692307692307,0.4738764987662303,0.0,0.9534358974358974,50,556,6634,772018,no_split,narrow,individual,1,0.48721909523010254
1,1.0,0.49823743664218934,0.3993694286981577,0.4281705850490564,0.45132025414119803,0.4701092182013295,0.4892682745162642,0.5091437374766222,0.5320235361091664,0.5607012284503395,0.6055489572484298,1.0841287229543268,0.9161025641025641,0.4738764987662303,0.0,0.9534358974358974,50,556,6634,772018,no_split,narrow,individual,1,0.48721909523010254
0,0.0,0.4539110867202829,0.3805298655515427,0.4015164319082921,0.41765038005724436,0.4314372814923023,0.4448354342211382,0.45935563868438917,0.4762312351177964,0.4977832234269271,0.5327573639614182,1.1423236352809905,0.9965263157894737,0.4891067104329231,0.0,0.9443733333333333,50,556,6844,772018,no_split,narrow,individual,1,0.48668622970581055
1,1.0,0.5252535672188777,0.4205098272738813,0.4496675482891279,0.47305502807594135,0.4942826309923415,0.513895200471426,0.53647693089782,0.5617602054920816,0.5945903177882984,0.6416954522379402,1.0829583814417318,0.8908108108108108,0.4891067104329231,0.0,0.9443733333333333,50,556,6844,772018,no_split,narrow,individual,1,0.48668622970581055
0,0.0,0.4440644883292598,0.35768584036985485,0.3825757998168459,0.401943170228997,0.4181872181480485,0.4340575678787986,0.45091257326773954,0.46959694020873355,0.49533098373918,0.5389754068448571,0.9621763209932017,0.9888524590163934,0.46927132819431694,0.0,0.9428882833787466,50,556,7624,772018,no_split,narrow,individual,1,0.4945073127746582
1,1.0,0.49434117436445535,0.39615221900437303,0.4243343688360165,0.44667401235934945,0.46723620400053967,0.48641284591851164,0.5059889141138795,0.5290762264145261,0.5568712352421035,0.6009424629243062,0.9901520999556351,0.8971739130434783,0.46927132819431694,0.0,0.9428882833787466,50,556,7624,772018,no_split,narrow,individual,1,0.4945073127746582
0,0.0,0.4120828468693523,0.3458256365825436,0.36304011563714356,0.3758783685707723,0.38719412937170794,0.3994635007966165,0.41186206500062394,0.4275790992693949,0.44910241482667285,0.490493687820853,1.1869090073860913,0.9809625668449198,0.4355428911718741,0.0,0.9273107049608356,50,556,7756,772018,no_split,narrow,individual,1,0.4900705814361572
1,1.0,0.45792568854213733,0.3714998518081501,0.39397950286486355,0.4114102668407996,0.42851311088905786,0.4462466995373099,0.4643617970152602,0.48609234115368066,0.5139768202291012,0.5603689686143616,0.9735138175113682,0.8761224489795918,0.4355428911718741,0.0,0.9273107049608356,50,556,7756,772018,no_split,narrow,individual,1,0.4900705814361572
0,0.0,0.4373864482477273,0.34398377588250856,0.36985736700701927,0.38926351559383626,0.4073227563201209,0.42510397592533355,0.44451707179406497,0.4671952627163812,0.4951120262328167,0.5429145924635886,1.2461921567573009,0.985,0.4545019868540462,0.0,0.9640106951871658,50,556,7768,772018,no_split,narrow,individual,1,0.48657846450805664
1,1.0,0.4725579396695034,0.3709270250317824,0.40195877956690357,0.42330849953193017,0.4436436266061068,0.46322240967503836,0.4839484615875062,0.5067799173224861,0.5382625601987,0.5834077543130667,1.0875335881490193,0.9418681318681319,0.4545019868540462,0.0,0.9640106951871658,50,556,7768,772018,no_split,narrow,individual,1,0.48657846450805664
0,0.0,0.4100168448772629,0.32230259365767655,0.3469105036993737,0.3650535501295205,0.3809369575941852,0.3963972947270605,0.4131408489682937,0.432663565734105,0.4595583822340533,0.5122212117236401,0.9630059157845059,0.9843850267379679,0.4357137867365332,0.0,0.9340860215053763,50,556,7807,772018,no_split,narrow,individual,1,0.4872012138366699
1,1.0,0.46168853337266047,0.35620623853434497,0.3860791543363393,0.4087495328607016,0.43014432869307806,0.4503533218677732,0.4717211964944106,0.4963752834397458,0.527928962971701,0.5809041024136642,1.0624634210590744,0.8832432432432432,0.4357137867365332,0.0,0.9340860215053763,50,556,7807,772018,no_split,narrow,individual,1,0.4872012138366699
0,0.0,0.4033627347644865,0.3319623713930864,0.3517109264895242,0.3650627403190892,0.37748575066059836,0.38972166584330054,0.403419017486998,0.42030505413386704,0.4433300961107272,0.48920331646534154,1.0558395888876457,0.9907692307692307,0.42488892882725793,0.0,0.9625484764542936,50,556,7813,772018,no_split,narrow,individual,1,0.49012041091918945
1,1.0,0.4467758970921988,0.36185721451587766,0.3838071320205434,0.4020527980692724,0.4199856201932638,0.43677759743346867,0.4545416179440443,0.47471175563726004,0.5006559892317575,0.5419929350996068,0.9834845492409866,0.9338547486033519,0.42488892882725793,0.0,0.9625484764542936,50,556,7813,772018,no_split,narrow,individual,1,0.49012041091918945
0,0.0,0.4103586326292979,0.3502289611729446,0.36862774473284843,0.38217386407648446,0.3944481629340353,0.40522093063502806,0.4170632929913943,0.4308038235473179,0.4469611585228231,0.4725842367184346,0.8806998166174829,0.9988297872340426,0.43969206070295486,0.0,0.9688118811881188,50,556,7828,772018,no_split,narrow,individual,1,0.4950222969055176
1,1.0,0.46522300735965627,0.38875946225925384,0.41172671105574593,0.4282990275500903,0.4444880850733865,0.45928447423537777,0.47581861348484783,0.49332185571449877,0.5154938988909924,0.5489917112873878,0.7662963886341561,0.9426851851851852,0.43969206070295486,0.0,0.9688118811881188,50,556,7828,772018,no_split,narrow,individual,1,0.4950222969055176
0,0.0,0.5430060948231419,0.40549279806973254,0.4353885873393002,0.4593322815880779,0.4808134128524072,0.5059029371461692,0.5353052553612033,0.5728788985490555,0.6296436165584106,0.7276710389174097,1.5856165137262583,0.9851851851851852,0.5701858017058277,0.0,0.9724031007751938,50,556,7840,772018,no_split,narrow,individual,1,0.49165892601013184
1,1.0,0.5961300673665733,0.4466066115746236,0.4827881010107845,0.5116992438370621,0.5393979041197136,0.5682339557109556,0.6005388585990312,0.6394525027875959,0.6918968884238694,0.779870006650863,1.5825405688200445,0.9602020202020202,0.5701858017058277,0.0,0.9724031007751938,50,556,7840,772018,no_split,narrow,individual,1,0.49165892601013184
0,0.0,0.4733967240913733,0.39360454969748715,0.41609055861496214,0.43111092788611594,0.4467387497462999,0.4609748154736199,0.4770611428465072,0.4969103136027161,0.5226222514851555,0.565264399812678,1.085742355976507,0.9997777777777778,0.5023100663149995,0.0,0.9965333333333334,50,556,7924,772018,no_split,narrow,individual,1,0.49080467224121094
1,1.0,0.5289993052906546,0.43458696015497766,0.46208900291571303,0.482422682831413,0.5009802638457742,0.518659078135324,0.5383216986188606,0.5608228355505366,0.5906791305690956,0.6345935877648701,1.027963299855117,0.9935384615384616,0.5023100663149995,0.0,0.9965333333333334,50,556,7924,772018,no_split,narrow,individual,1,0.49080467224121094
0,0.0,0.46388549898837245,0.37712904005967907,0.4019929701382733,0.41953577416752114,0.43491039317421504,0.4511712509684177,0.467393485307985,0.4878918742923503,0.5144116172305248,0.5628699993474369,1.240950017691398,0.9926315789473684,0.48531063542628156,0.0,0.9766582278481013,50,556,7939,772018,no_split,narrow,individual,1,0.49570798873901367
1,1.0,0.5051680789540999,0.4065479085599259,0.4342286739240133,0.4556049518345527,0.47577569022321087,0.4958351266916254,0.5155214971412017,0.5390836687633758,0.5678881204846669,0.616398653962823,1.1500927587246712,0.9618536585365853,0.48531063542628156,0.0,0.9766582278481013,50,556,7939,772018,no_split,narrow,individual,1,0.49570798873901367
0,0.0,0.4532570736995343,0.3686803380301199,0.38982745973190597,0.40623840552978563,0.4210085340077428,0.435081029803873,0.4512654625234828,0.47134300837253246,0.5030318324802777,0.5587926245066218,1.267367064523345,0.9770909090909091,0.4722709346472137,0.0,0.9438983050847458,50,556,8026,772018,no_split,narrow,individual,1,0.4917130470275879
1,1.0,0.48887033706185434,0.3903560358051346,0.41513001830200785,0.4354116552788045,0.45382317150265006,0.47307841009604373,0.49459788492517254,0.5195519460724983,0.5529558474193041,0.6061203414342443,1.4222106499699236,0.9149206349206349,0.4722709346472137,0.0,0.9438983050847458,50,556,8026,772018,no_split,narrow,individual,1,0.4917130470275879
0,0.0,0.4526832139146576,0.35136376808527087,0.3773373829052035,0.3983489414424029,0.41750498179125584,0.4357344654911772,0.45535333447506426,0.4791101349435652,0.5128056901246585,0.5768246098475176,1.345919048199703,0.9542245989304813,0.4673926789947643,0.0,0.9108493150684932,50,556,8311,772018,no_split,narrow,individual,1,0.49663758277893066
1,1.0,0.4828458810733034,0.37516989239022286,0.40530279144454545,0.4273669027313853,0.44923647448269255,0.4705137645724602,0.4927507900060247,0.5166578598397774,0.5491544701786363,0.6045105568118122,1.2300840971141576,0.8652808988764045,0.4673926789947643,0.0,0.9108493150684932,50,556,8311,772018,no_split,narrow,individual,1,0.49663758277893066
0,0.0,0.3880564185123099,0.3233522266086183,0.34345912586968214,0.3583837870002461,0.37095812371495557,0.38385595255308413,0.39654930161710406,0.41128036694923076,0.42809593108483196,0.455610482341098,0.8267959540113878,0.9930569948186528,0.41497894105345295,0.0,0.9233604336043361,50,556,8446,772018,no_split,narrow,individual,1,0.4992525577545166
1,1.0,0.44450193452186565,0.35793314770993323,0.3837836635855352,0.4030591911794451,0.42093170039161976,0.43816257988688745,0.45712646934176276,0.4764426343937974,0.5014537021736929,0.5389343453937588,0.9883897149901136,0.8469318181818182,0.41497894105345295,0.0,0.9233604336043361,50,556,8446,772018,no_split,narrow,individual,1,0.4992525577545166
0,0.0,0.48586148647933536,0.40025532173517564,0.42284631391969557,0.4399683554211845,0.4555885614505621,0.47145396216447133,0.4885888830279727,0.508703217207283,0.5383795042365058,0.5910714576106256,1.1891359229468517,0.9880402010050251,0.500433717893368,0.0,0.9705974025974026,50,556,8521,772018,no_split,narrow,individual,1,0.49701428413391113
1,1.0,0.5160244385997794,0.42628896793287985,0.45095667246240667,0.46962979456950454,0.4867483345355588,0.5043742971452179,0.5236686165429066,0.5453170355079603,0.5738768427668682,0.617392413447366,1.0014059807473084,0.9519354838709677,0.500433717893368,0.0,0.9705974025974026,50,556,8521,772018,no_split,narrow,individual,1,0.49701428413391113
0,0.0,0.5435406993010513,0.42022574618942315,0.45094983578195436,0.4745186911004463,0.49632943185894346,0.5196015283947825,0.5460559372062248,0.5771977402295174,0.6208624831872595,0.6921053517662963,1.4559059146449604,0.9898360655737705,0.5624554226675219,0.0,0.9781661891117478,50,556,8704,772018,no_split,narrow,individual,1,0.4968574047088623
1,1.0,0.5833071960173055,0.4604446797332381,0.4932466687843037,0.519659175978099,0.5434543545384669,0.5669573459475774,0.5925339477774717,0.6217051591675302,0.6607077289581398,0.7260891472527746,1.39843560082573,0.9653012048192771,0.5624554226675219,0.0,0.9781661891117478,50,556,8704,772018,no_split,narrow,individual,1,0.4968574047088623
0,0.0,0.4567210821464023,0.3666324918738585,0.3870710360693853,0.40363616905532934,0.4188385627668928,0.43570973220402975,0.45477559708210696,0.4776799128399014,0.5111611264096758,0.5736165914934926,1.1793373117318071,0.993816425120773,0.47350675265516196,0.0,0.9856701030927835,50,556,8755,772018,no_split,narrow,individual,1,0.49660468101501465
1,1.0,0.4927036244524727,0.3942895960917132,0.41983716112055697,0.4395351854597079,0.4573735839750446,0.4763283727617549,0.49729463432733306,0.5220354852501403,0.5567844801076154,0.6094724110339153,1.2949577293744878,0.976353591160221,0.47350675265516196,0.0,0.9856701030927835,50,556,8755,772018,no_split,narrow,individual,1,0.49660468101501465
0,0.0,0.4546014793034684,0.3571275245173017,0.38144981785374865,0.40012032876124093,0.4168391856898418,0.4350450311833641,0.45619312720160987,0.48532392917421785,0.5245999112665538,0.5802751983386556,1.1373958966484112,0.995576923076923,0.4702086611070018,0.0,0.93605,50,556,8785,772018,no_split,narrow,individual,1,0.4952855110168457
1,1.0,0.487116441394163,0.3962961556105146,0.4229911954238742,0.44443298088317695,0.4624690937718501,0.48056729976315193,0.4993876175345503,0.5194888171373174,0.5446555283274798,0.5840278502202345,0.9262984319074788,0.8715625,0.4702086611070018,0.0,0.93605,50,556,8785,772018,no_split,narrow,individual,1,0.4952855110168457
0,0.0,0.4137040007727681,0.33063600775701063,0.35173000229396917,0.36696513883711884,0.380853072617103,0.39476130975711554,0.41155498411860786,0.43180086109576044,0.4614334186656154,0.5155334981463714,1.237795238051659,0.9744680851063829,0.43888232991673337,0.0,0.9216452442159383,50,556,8788,772018,no_split,narrow,individual,1,0.49885010719299316
1,1.0,0.46243220991208406,0.3599307444904693,0.38621951831817974,0.4075100898398027,0.42724111154231115,0.44816845611015144,0.46961704664242393,0.4960169439228493,0.5283353487932075,0.5794531846523305,1.1069200580084204,0.8722388059701492,0.43888232991673337,0.0,0.9216452442159383,50,556,8788,772018,no_split,narrow,individual,1,0.49885010719299316
0,0.0,0.4338219581417295,0.378998687157081,0.3945760161722744,0.40597406978179956,0.41704746707470447,0.4275189865382295,0.4385919271159013,0.45092413563631667,0.46682719675997636,0.4929535617926772,0.7799419259445525,0.9955555555555555,0.45469345040168274,0.0,0.9686338797814208,50,556,161753,772018,no_split,narrow,individual,1,0.48651552200317383
1,1.0,0.4748916687177665,0.4071558199317129,0.42632151752006,0.4412830605476207,0.455334871740575,0.46801963862368157,0.4823731107340437,0.49840581677821133,0.5192247172771838,0.5508333580931136,1.0058778578854755,0.9425806451612904,0.45469345040168274,0.0,0.9686338797814208,50,556,161753,772018,no_split,narrow,individual,1,0.48651552200317383
0,0.0,0.4559145859445122,0.3771146847466666,0.3968821022979202,0.4131272034411586,0.4275072745572724,0.44202742759035296,0.45928722845960385,0.4773561712694143,0.502483268044206,0.5483453253970728,1.1837700396769966,0.9968041237113402,0.4762783109386736,0.0,0.9888829787234042,50,556,337788,772018,no_split,narrow,individual,1,0.48355746269226074
1,1.0,0.49798469911926335,0.4060857293106503,0.43117949027657054,0.45016079997686737,0.4681610800120632,0.48628174493842125,0.5059029412403201,0.5285376722380691,0.5572863609023375,0.6049056037834158,1.1643528981141715,0.9804395604395605,0.4762783109386736,0.0,0.9888829787234042,50,556,337788,772018,no_split,narrow,individual,1,0.48355746269226074
