,congruency,mean_rt,qu10_rt,qu20_rt,qu30_rt,qu40_rt,qu50_rt,qu60_rt,qu70_rt,qu80_rt,qu90_rt,qu100_rt,mean_acc,mean_rt_overall,nonconvergent_trials,accuracy_overall,n_posterior_draws,condition,id,slurm_id,split,spacing,estimation_level,number_parts,time_post_sampling_sec
0,0.0,0.42152097008730793,0.3337348159637283,0.35182885731831937,0.3690980670492803,0.3855481297371951,0.40371511954918204,0.4231156959305306,0.44773273932181396,0.48061491444913806,0.5337103484553448,0.9527999327061621,0.99,0.4294686219948546,0.0,0.9854497354497355,50,496,1108,PC,no_split,wide,individual,1,0.6044902801513672
1,1.0,0.4375008233907794,0.34242421671241474,0.36548104055807623,0.3847939852348045,0.4041168944598884,0.4233607420209675,0.4434262653595042,0.4686234495876592,0.4997934592881242,0.5501382884992364,1.127482871775656,0.9808510638297873,0.4294686219948546,0.0,0.9854497354497355,50,496,1108,PC,no_split,wide,individual,1,0.6044902801513672
0,0.0,0.45291866003926146,0.34295278518739875,0.3665792475265703,0.38928032970567156,0.4103912746121211,0.43337248066175216,0.45904676538301903,0.48700949591017306,0.5265598617835859,0.5892916162076101,1.254226035331219,0.9914285714285714,0.460890178836254,0.0,0.9892105263157894,50,496,1507,PC,no_split,wide,individual,1,0.4878377914428711
1,1.0,0.4687782262322308,0.34843225581616244,0.37719001734749313,0.40235630620379653,0.425281334610086,0.4499688276362608,0.4763888253860938,0.5081291644334619,0.5501169531995065,0.612082517165557,1.1483839269340392,0.9870157068062827,0.460890178836254,0.0,0.9892105263157894,50,496,1507,PC,no_split,wide,individual,1,0.4878377914428711
0,0.0,0.4565218843887053,0.3565321063499341,0.3776111116871521,0.3969233733469059,0.4160698780781138,0.4369447546661715,0.4592524393969554,0.48641349702693604,0.5236369895309856,0.5818842244055956,1.2928104962684956,0.9910526315789474,0.46655843556980764,0.0,0.98750656167979,50,496,1538,PC,no_split,wide,individual,1,0.4402890205383301
1,1.0,0.47654243936252727,0.36687277839409643,0.39284822853266294,0.4158431301844081,0.4378384681964206,0.4607151109994444,0.4846156747729736,0.5126356535505984,0.5500511062730605,0.6049525692047003,1.2460433232849932,0.9839790575916231,0.46655843556980764,0.0,0.98750656167979,50,496,1538,PC,no_split,wide,individual,1,0.4402890205383301
0,0.0,0.469329544514793,0.3688337298297642,0.3918637919172669,0.4133306282565975,0.43308389849233525,0.45313062926435693,0.47619843395406125,0.5019171840825911,0.5368108255325187,0.5903093534485206,1.034332097084878,0.9943478260869565,0.4765947472174957,0.0,0.9918918918918919,50,496,1582,PC,no_split,wide,individual,1,0.42365002632141113
1,1.0,0.4837818294610295,0.37890683011752246,0.4064741321170147,0.42862758894790226,0.44882548897308333,0.47010247628687224,0.49293346716012576,0.5191163476053953,0.5508890316449433,0.601925950142633,1.0190560318005297,0.9894623655913979,0.4765947472174957,0.0,0.9918918918918919,50,496,1582,PC,no_split,wide,individual,1,0.42365002632141113
0,0.0,0.4451775724140258,0.33958997883236947,0.3619257285979972,0.38215792271322535,0.4031579227132253,0.42390276297864715,0.44889492638889156,0.4776619986399303,0.5144401822318143,0.5787833388278457,1.195571544997341,0.9935078534031414,0.4592493745274046,0.0,0.9898694516971279,50,496,1583,PC,no_split,wide,individual,1,0.42267608642578125
1,1.0,0.4732478860047763,0.35574244584923354,0.383861502325238,0.4109766466662714,0.4346394407565318,0.45873393250115124,0.4835950546409529,0.5120272803721222,0.5504398080456687,0.6092521509148844,1.1088815264678633,0.98625,0.4592493745274046,0.0,0.9898694516971279,50,496,1583,PC,no_split,wide,individual,1,0.42267608642578125
0,0.0,0.573756589980949,0.3779288427663741,0.42456117678885513,0.4657668392191672,0.5012207343573176,0.5411724285127886,0.5860970474747443,0.6381143957182553,0.7057723321043251,0.8098493323115913,1.461614996500356,0.9937853107344633,0.5791944446404141,0.0,0.9919230769230769,50,496,1597,PC,no_split,wide,individual,1,0.5103976726531982
1,1.0,0.5843415049330625,0.39149254443291476,0.43973626662781684,0.4797741237624123,0.5179088255229313,0.5557865218947409,0.5970722019924001,0.6468144491737666,0.7107833521568969,0.8136002030624774,1.4501597605398073,0.9901604278074866,0.5791944446404141,0.0,0.9919230769230769,50,496,1597,PC,no_split,wide,individual,1,0.5103976726531982
0,0.0,0.4116743194638054,0.3269259669887991,0.3482996397172177,0.36553211987681583,0.38339902510875146,0.40158166135849355,0.419303519376926,0.440548555170373,0.46921448012943373,0.5097149606736345,0.7682125612754803,0.9982105263157894,0.4209567113538207,0.0,0.9977308707124011,50,496,1601,PC,no_split,wide,individual,1,0.5126850605010986
1,1.0,0.4302882164284392,0.3376889132700379,0.3631854954894589,0.38317330771762803,0.40189225557109687,0.42038784215985525,0.44067931666457166,0.4631832105083049,0.4934228633509822,0.5346507871777643,0.893311876849782,0.9972486772486773,0.4209567113538207,0.0,0.9977308707124011,50,496,1601,PC,no_split,wide,individual,1,0.5126850605010986
0,0.0,0.4879746974228331,0.34661676129103225,0.37501095296586856,0.40087563222218653,0.4260848270652996,0.45570497308829305,0.48907847624886147,0.5282479819047392,0.584070974948207,0.6718852790293597,1.3151892793126279,0.9872631578947368,0.4965086447912541,0.0,0.9807368421052631,50,496,1614,PC,no_split,wide,individual,1,0.502885103225708
1,1.0,0.5050425921596752,0.35692385020485884,0.39155152901940166,0.42291511142493154,0.45178112799105485,0.48187680217357753,0.5130544197215385,0.5512660077578114,0.5990309133684276,0.6803258922516415,1.3131435892314807,0.9742105263157895,0.4965086447912541,0.0,0.9807368421052631,50,496,1614,PC,no_split,wide,individual,1,0.502885103225708
0,0.0,0.43166564099618354,0.3641418050929357,0.3823519579492582,0.3970949680165121,0.4106775250745724,0.42410080536843436,0.43923554233296674,0.4562719405590469,0.47740833730883653,0.5073017453230189,0.743676269898856,0.9992631578947369,0.43860330199908454,0.0,0.998740157480315,50,496,161753,PC,no_split,wide,individual,1,0.41994309425354004
1,1.0,0.4455046401695096,0.373610211250146,0.393370987078277,0.409612412669182,0.42449921241956695,0.43989467919712955,0.45437331466637604,0.4721322765575363,0.49369450908135537,0.5259783626395292,0.7762664727978731,0.9982198952879581,0.43860330199908454,0.0,0.998740157480315,50,496,161753,PC,no_split,wide,individual,1,0.41994309425354004
0,0.0,0.4726287322920011,0.3597104655716167,0.3875053273693418,0.41048153726495024,0.43276099249922984,0.4560954131402606,0.48063218788488093,0.5097210177758086,0.5474105772607358,0.6065057225254747,0.9827552922722435,0.9962765957446809,0.47834013267374476,0.0,0.9941952506596307,50,496,1638,PC,no_split,wide,individual,1,0.47384023666381836
1,1.0,0.4839618251960893,0.36909916262273823,0.39911480193426274,0.42299343174269954,0.4458811423790835,0.4699527628635576,0.4942256489095223,0.5221117848237539,0.5592059335089417,0.616765178720939,1.0854820069069315,0.9921465968586387,0.47834013267374476,0.0,0.9941952506596307,50,496,1638,PC,no_split,wide,individual,1,0.47384023666381836
0,0.0,0.4029652044417947,0.32268513849200725,0.3405056991258733,0.35675018969051236,0.37240718659731187,0.38862747888307725,0.4062737359645145,0.4284444451399375,0.4551589208015026,0.4999540784631869,0.8976448558469925,0.992421052631579,0.41109608487506777,0.0,0.9884960422163589,50,496,1657,PC,no_split,wide,individual,1,0.49530959129333496
1,1.0,0.41926998583973396,0.32893588490647613,0.35119878954070227,0.36941791105245136,0.38705929471955575,0.4062757683864075,0.4261305102849176,0.4498967010638541,0.48070610603111275,0.5242719133787609,0.9118017182951708,0.9845502645502645,0.41109608487506777,0.0,0.9884960422163589,50,496,1657,PC,no_split,wide,individual,1,0.49530959129333496
0,0.0,0.46782113052309504,0.37531205900627596,0.39623782037293725,0.4129531076681653,0.4302783662197751,0.4487179637716865,0.4695809764533932,0.4949611148554493,0.5291761011741533,0.5881784991249739,1.3111611969130859,0.9902127659574468,0.47514291201583403,0.0,0.9865608465608465,50,496,1663,PC,no_split,wide,individual,1,0.416766881942749
1,1.0,0.48238762212443886,0.38197712923001753,0.4048829398196345,0.4253257569762203,0.44538003591523173,0.4661106167872761,0.48982533190418037,0.5168819198105136,0.5516359428083374,0.6033334771542237,0.9887179637716865,0.9829473684210527,0.47514291201583403,0.0,0.9865608465608465,50,496,1663,PC,no_split,wide,individual,1,0.416766881942749
0,0.0,0.513342307323591,0.3760186844218542,0.4089112593242998,0.4356268677038101,0.4619906339308685,0.49106041838018777,0.5226826890152787,0.5573716453999716,0.6067327408818454,0.6805904074633505,1.300700791348413,0.9968817204301075,0.5262883490082748,0.0,0.9946380697050938,50,496,1761,PC,no_split,wide,individual,1,0.44488072395324707
1,1.0,0.5391651605235219,0.39358653892108353,0.431921139559131,0.4638514203953006,0.4938284327482024,0.5236753754738843,0.5559955068575394,0.5908376098656541,0.6350978049708711,0.7021686769236598,1.204128006479356,0.9924064171122995,0.5262883490082748,0.0,0.9946380697050938,50,496,1761,PC,no_split,wide,individual,1,0.44488072395324707
0,0.0,0.45431930044020885,0.3175416399481323,0.34623736948924805,0.37291026193055904,0.4005648772993903,0.42678474042668557,0.4585592571698433,0.49704318980734896,0.548005038693528,0.6285442168576878,1.3809941253479752,0.9959162303664921,0.4736200334245021,0.0,0.9910994764397906,50,496,1768,PC,no_split,wide,individual,1,0.5101051330566406
1,1.0,0.4929207664087953,0.34278351584819433,0.3827219280150126,0.41390508055202313,0.4452273612337515,0.47712074672878463,0.5075894614326444,0.5430144684142415,0.5880324891779067,0.6651808639430414,1.3404804312978051,0.986282722513089,0.4736200334245021,0.0,0.9910994764397906,50,496,1768,PC,no_split,wide,individual,1,0.5101051330566406
0,0.0,0.38517619742514325,0.2982276706485053,0.31609748507503704,0.3322685359893435,0.3485180617922705,0.36704183088406495,0.3871449108650576,0.4108301607620518,0.44353848162877907,0.49517704265781304,0.973097485075037,0.9868085106382979,0.39140960168046235,0.0,0.9816489361702128,50,496,1813,PC,no_split,wide,individual,1,0.5074985027313232
1,1.0,0.3976430059357815,0.301105917994456,0.32317805660832266,0.34383322945890415,0.3618333662569639,0.38151806179227055,0.4023822407675554,0.4291546889784405,0.4615170885831032,0.5138160793077313,1.0018329102634316,0.9764893617021276,0.39140960168046235,0.0,0.9816489361702128,50,496,1813,PC,no_split,wide,individual,1,0.5074985027313232
0,0.0,0.3970563795601854,0.31048530676730995,0.3306353432701756,0.34806754099625903,0.3653948695452252,0.3824354271165601,0.4020760155104287,0.4254212656257579,0.4553965080030963,0.5046100073117784,0.8439518284525637,0.994421052631579,0.40129999359527313,0.0,0.9930183727034121,50,496,1821,PC,no_split,wide,individual,1,0.4200589656829834
1,1.0,0.4055213897558316,0.3150447527663948,0.33842335595499107,0.3570760155104287,0.3752275240125083,0.39417263436084815,0.41377512441343695,0.43626587271543954,0.4645255681095478,0.5098869364963095,0.8933975793490228,0.9916230366492147,0.40129999359527313,0.0,0.9930183727034121,50,496,1821,PC,no_split,wide,individual,1,0.4200589656829834
0,0.0,0.446459548850928,0.342780664612852,0.3680725469440439,0.39192277822570204,0.41353970654562444,0.43499390155607587,0.4574100417090796,0.48314839337346177,0.51625220633974,0.564582970442078,0.943795911991265,0.9961256544502618,0.446709580598728,0.0,0.996436170212766,50,496,275,PC,no_split,wide,individual,1,0.42067384719848633
1,1.0,0.4469677214842943,0.34401537808734617,0.36903374972990466,0.3925266713665516,0.4130319296135922,0.43544995981709966,0.4575023485705613,0.48278388284184665,0.51561642843685,0.5650468521989417,0.9965529382495253,0.9967567567567568,0.446709580598728,0.0,0.996436170212766,50,496,275,PC,no_split,wide,individual,1,0.42067384719848633
0,0.0,0.3916767347879259,0.3011602367398345,0.32230342463519207,0.3403098588352227,0.35916624689723725,0.37715514032109676,0.3975068320777369,0.4221546033524552,0.4515543564349601,0.5007166357165037,0.9905534839700829,0.9977659574468085,0.3998744412047666,0.0,0.9960212201591512,50,496,3286,PC,no_split,wide,individual,1,0.4199526309967041
1,1.0,0.40802877351358163,0.3084205452924666,0.3345130951153637,0.35616734948744533,0.37674056906125847,0.39566987329480097,0.41716569560213324,0.44150036545966187,0.4725624238691044,0.5217159842213814,0.8652064426470235,0.9942857142857143,0.3998744412047666,0.0,0.9960212201591512,50,496,3286,PC,no_split,wide,individual,1,0.4199526309967041
0,0.0,0.4563663358181364,0.3474729657349137,0.37416570928414744,0.396704353861299,0.4185535333649901,0.4404782855163241,0.4640282302270801,0.4931857446823038,0.5309109411411957,0.5838775468050105,1.0283062362126911,0.997989417989418,0.4667528673477815,0.0,0.9970448548812665,50,496,3292,PC,no_split,wide,individual,1,0.4294581413269043
1,1.0,0.47708473292200726,0.35975431119074375,0.39222623037375615,0.41733135634735,0.44086417859757765,0.46367624435312454,0.48899247464863965,0.5184905711810832,0.5544154730275193,0.6109154975781874,1.1492414094626198,0.9961052631578947,0.4667528673477815,0.0,0.9970448548812665,50,496,3292,PC,no_split,wide,individual,1,0.4294581413269043
0,0.0,0.45322561534246003,0.36204692302897656,0.3852460596352386,0.4038439342466904,0.4224068364306063,0.4410222701096414,0.46121536668033336,0.4852336360398753,0.5141121730446166,0.5605385729674007,0.87825779939535,0.9983157894736842,0.45814617260175,0.0,0.997742782152231,50,496,337788,PC,no_split,wide,individual,1,0.507941722869873
1,1.0,0.4630409677811484,0.3668509482280511,0.39311451912160983,0.4138503519660414,0.43310702871508777,0.45321900033039103,0.4738305478815874,0.49780973164770365,0.5249739637634502,0.5700439581856075,0.9009783295385148,0.9971727748691099,0.45814617260175,0.0,0.997742782152231,50,496,337788,PC,no_split,wide,individual,1,0.507941722869873
0,0.0,0.415321215365843,0.3205545135234281,0.34086562982802543,0.35981770161223303,0.3774755513403837,0.3974338402985117,0.41746064894283225,0.4432419081674473,0.478027509097599,0.5348995989677883,1.2660632666136438,0.9949732620320856,0.42680909961631747,0.0,0.9909139784946237,50,496,3487,PC,no_split,wide,individual,1,0.5109083652496338
1,1.0,0.43842117721004015,0.33101354095121277,0.3579672549994549,0.38068854323310647,0.4020863448946544,0.424445565931208,0.44800790989518474,0.47559573315122833,0.5093850878981189,0.5603154343186528,1.0383089948404285,0.9868108108108108,0.42680909961631747,0.0,0.9909139784946237,50,496,3487,PC,no_split,wide,individual,1,0.5109083652496338
0,0.0,0.41242830258968205,0.32848264477725786,0.35026954215395695,0.36823275282286894,0.3856718018212097,0.40306712391655375,0.42115102595918247,0.44165365712730936,0.46814830837261956,0.5071603090028548,0.9190920452802525,0.9986387434554974,0.41961597288525815,0.0,0.9983597883597883,50,496,3580,PC,no_split,wide,individual,1,0.47547388076782227
1,1.0,0.42695739013902834,0.3396404222672581,0.3642056660858166,0.3836981041483756,0.40227331075995026,0.42004271439794716,0.4384958813472567,0.4601990070877798,0.4851483083726195,0.5223391087103659,0.7757082046177296,0.9980748663101604,0.41961597288525815,0.0,0.9983597883597883,50,496,3580,PC,no_split,wide,individual,1,0.47547388076782227
0,0.0,0.47478656776292777,0.34027733190963877,0.36796989660327006,0.39366311014779637,0.42015566632343004,0.44805583820271805,0.4792843935859602,0.5163504083650039,0.5670229481888648,0.6446492564038016,1.3380333847030743,0.9952747252747253,0.4947286502108666,0.0,0.9921546961325967,50,496,3625,PC,no_split,wide,individual,1,0.44679975509643555
1,1.0,0.5148923113526713,0.36834946070548163,0.40665972745870665,0.438713043080837,0.46929550036114825,0.49798902941750767,0.5296125773933702,0.5653751313029668,0.6096452813513892,0.6790898717589957,1.2840782917023619,0.989,0.4947286502108666,0.0,0.9921546961325967,50,496,3625,PC,no_split,wide,individual,1,0.44679975509643555
0,0.0,0.5497446427871993,0.4253010474481792,0.45554567912244326,0.4823661599167012,0.5086999982033935,0.53436612717552,0.5626263769356634,0.5939716614784685,0.633283782583913,0.6949785518468177,1.1809446146072629,0.9990575916230366,0.559228235976794,0.0,0.9980052493438321,50,496,3754,PC,no_split,wide,individual,1,0.42422008514404297
1,1.0,0.568761742814755,0.44272291062349806,0.4780262549598153,0.5052146247257362,0.5310056036569057,0.55636612717552,0.5828379861527977,0.6149921801907078,0.6531672016166392,0.7081255506974565,1.080260031810749,0.9969473684210526,0.559228235976794,0.0,0.9980052493438321,50,496,3754,PC,no_split,wide,individual,1,0.42422008514404297
0,0.0,0.41816577531562227,0.3315655925644051,0.3497102171528741,0.36650637397146574,0.38299195643402795,0.401290788072843,0.4218135487264995,0.4440046652864411,0.4756702094547016,0.5266687923522457,0.9976408252823316,0.9865608465608465,0.4232241218415677,0.0,0.9832189973614776,50,496,3910,PC,no_split,wide,individual,1,0.4134681224822998
1,1.0,0.4282558454910609,0.33541537927789167,0.3572325205496684,0.3749703560135667,0.39268567173813895,0.4115655925644051,0.43296749455714933,0.45831494067740525,0.4914242477679099,0.5439716741000283,0.9859975694712582,0.9798947368421053,0.4232241218415677,0.0,0.9832189973614776,50,496,3910,PC,no_split,wide,individual,1,0.4134681224822998
0,0.0,0.4069838458778174,0.33016639125005726,0.34623322943959906,0.36213952546006406,0.37728879539705484,0.393270660990492,0.4105758544963155,0.43127371525731456,0.4575706808190652,0.5025711981867902,0.9317391280518856,0.9946315789473684,0.41350887990086976,0.0,0.9918733509234828,50,496,4222,PC,no_split,wide,individual,1,0.46250295639038086
1,1.0,0.42006843791346204,0.3372902742755377,0.35895047387658413,0.37600612075410456,0.3921812574616625,0.40903370068204714,0.4274087806059395,0.4485148716224492,0.47495792532510406,0.512791157514806,0.845474228487652,0.9891005291005291,0.41350887990086976,0.0,0.9918733509234828,50,496,4222,PC,no_split,wide,individual,1,0.46250295639038086
0,0.0,0.46120277593026593,0.3319577854760265,0.3557000181486659,0.3781626945665562,0.4013836094528618,0.4273790325767625,0.45885649878654505,0.4970663701192839,0.5512988153136562,0.6308828195872136,1.4159810863888256,0.9850793650793651,0.4775320880995781,0.0,0.9734391534391534,50,496,4264,PC,no_split,wide,individual,1,0.5123796463012695
1,1.0,0.49386140026889025,0.35118370920782765,0.38465167669915895,0.4136743002661413,0.4420042371107735,0.4717323710088305,0.5044165507622702,0.539317058610847,0.585890927250777,0.6639849858991946,1.4611354357533424,0.9617989417989418,0.4775320880995781,0.0,0.9734391534391534,50,496,4264,PC,no_split,wide,individual,1,0.5123796463012695
0,0.0,0.43346538621646274,0.36719311179460273,0.38248690399843643,0.3960081055897465,0.40870025280400024,0.42172255790856816,0.4355703369557907,0.45285389161690104,0.47657842627959346,0.5155553745655527,0.9181001565827578,0.9924468085106383,0.43822310252851954,0.0,0.9902933333333334,50,496,5281,PC,no_split,wide,individual,1,0.5148911476135254
1,1.0,0.44300626117379577,0.3710146739493368,0.3875397509913885,0.4024926583551653,0.41661344642913406,0.431853891616901,0.44849265835516533,0.4666128956041265,0.49026900841590126,0.5296182855584287,0.8755555150214253,0.9881283422459893,0.43822310252851954,0.0,0.9902933333333334,50,496,5281,PC,no_split,wide,individual,1,0.5148911476135254
0,0.0,0.4632660009081279,0.35952967316109957,0.3862829542028811,0.40734663754209605,0.42876794556327674,0.4508685283912768,0.4737845268309914,0.5003377711711642,0.5321875301813972,0.578872007147345,1.1079301788538938,0.9982010582010582,0.4703750912784983,0.0,0.99696,50,496,5332,PC,no_split,wide,individual,1,0.4245748519897461
1,1.0,0.47759884439677786,0.3702988390482209,0.39849288625388646,0.4228949971522298,0.4438275819658488,0.4665227301906474,0.4899657669806136,0.5167033361581047,0.5488278019403666,0.5990280790319478,1.0224700109922693,0.9956989247311828,0.4703750912784983,0.0,0.99696,50,496,5332,PC,no_split,wide,individual,1,0.4245748519897461
0,0.0,0.4494170011929035,0.3478248335772743,0.3709670789597349,0.39085445000945296,0.41102726794874156,0.43208957132346604,0.45468316755813515,0.4825892427674569,0.5175232922770994,0.5719206091114906,1.050967078959735,0.996421052631579,0.461337965503416,0.0,0.9936147757255936,50,496,5575,PC,no_split,wide,individual,1,0.42360711097717285
1,1.0,0.4733220036991692,0.3595201661282202,0.38993959280350726,0.4145715875403716,0.43729242418318837,0.4590484191345892,0.48359023977962545,0.5125636306722804,0.5497429983774929,0.6057899162315435,1.1352586352513163,0.9907936507936508,0.461337965503416,0.0,0.9936147757255936,50,496,5575,PC,no_split,wide,individual,1,0.42360711097717285
0,0.0,0.4483546340117899,0.34588964800970595,0.3667263802420787,0.3865893573004593,0.40643545717212154,0.426794958435102,0.450348731981673,0.47824426761436156,0.5158945194761736,0.5780577603882165,1.1871781912127721,0.9876502732240438,0.4583358476862483,0.0,0.9848517520215634,50,496,5731,PC,no_split,wide,individual,1,0.41866230964660645
1,1.0,0.4680516035502157,0.35314909708937475,0.38102089666458666,0.40366367970613753,0.4262903631369796,0.4495222898200385,0.4744959597639662,0.5043828573418867,0.5429343952828202,0.6041151067563156,1.1414327304952885,0.9821276595744681,0.4583358476862483,0.0,0.9848517520215634,50,496,5731,PC,no_split,wide,individual,1,0.41866230964660645
0,0.0,0.43004395073147134,0.34283816124832556,0.3629578092591141,0.3807161729938785,0.39817166678657656,0.4165849252424944,0.4366598556908544,0.4607252440852818,0.48890008460635226,0.5334224820634759,0.8692071803584035,0.9988297872340426,0.44342251103397146,0.0,0.9971352785145888,50,496,5761,PC,no_split,wide,individual,1,0.4122941493988037
1,1.0,0.45673028530312504,0.3595849252424944,0.3861628278228054,0.40837240118197726,0.4283688984502957,0.4481355325900754,0.4690831905730335,0.49184795188274333,0.5220052379944111,0.5651457544689183,0.8793478820602065,0.9954497354497355,0.44342251103397146,0.0,0.9971352785145888,50,496,5761,PC,no_split,wide,individual,1,0.4122941493988037
0,0.0,0.4352479955798294,0.31817868964081186,0.3410219119667761,0.3627769674762114,0.3840219119667761,0.40613029042796767,0.43320431913712154,0.4650219119667761,0.5136033933149956,0.5903018413903458,1.3358524691312939,0.964375,0.4410995580798294,0.0,0.9577604166666667,50,496,5803,PC,no_split,wide,individual,1,0.4613776206970215
1,1.0,0.44695112057982944,0.3239811773350054,0.35084997949297436,0.3741679342601798,0.39744664860171053,0.42269119109635206,0.4499866492200012,0.48275044964253094,0.5268400209396962,0.5997280203094608,1.3632263228961417,0.9511458333333334,0.4410995580798294,0.0,0.9577604166666667,50,496,5803,PC,no_split,wide,individual,1,0.4613776206970215
0,0.0,0.5015660856729592,0.3671433484396741,0.39945989425510936,0.4265033779086849,0.451719849438885,0.4781596381129937,0.5090499362218416,0.5446156017510682,0.5900631643957583,0.6675098357773663,1.3734281116900835,0.996875,0.5166630059391023,0.0,0.9941361256544503,50,496,5815,PC,no_split,wide,individual,1,0.5193560123443604
1,1.0,0.5319188411554153,0.38485412623354004,0.4254598942551094,0.45775574563615756,0.48792824267750456,0.5169049328440909,0.5469312871144768,0.5834007116188941,0.628068820435072,0.6949573243092593,1.25241247510644,0.9913684210526316,0.5166630059391023,0.0,0.9941361256544503,50,496,5815,PC,no_split,wide,individual,1,0.5193560123443604
0,0.0,0.41985796859755425,0.34266363822738916,0.3614523943677009,0.37844001228856505,0.39453882898760084,0.41009698046095977,0.4268593296082582,0.44552583160520226,0.47038506026156174,0.5086803391315136,0.8788173367732321,0.998,0.4291235068877241,0.0,0.9968783068783069,50,496,6055,PC,no_split,wide,individual,1,0.5287282466888428
1,1.0,0.43848761473417236,0.35393077994608785,0.3747547560344863,0.3943992217501901,0.4126484608630818,0.42988086521410973,0.4495286835241232,0.4696610367596867,0.4943243194369185,0.5328229710404552,0.8900181795289893,0.9957446808510638,0.4291235068877241,0.0,0.9968783068783069,50,496,6055,PC,no_split,wide,individual,1,0.5287282466888428
0,0.0,0.4672236162508589,0.3436811954035429,0.3683949113439796,0.39106329764983355,0.41380541277949695,0.43933032097866964,0.46805637176172554,0.5031654197816205,0.5516415882006546,0.6307111549156753,1.4519623057696818,0.9861621621621621,0.47619168899921044,0.0,0.9818230563002681,50,496,6109,PC,no_split,wide,individual,1,0.5075130462646484
1,1.0,0.48501665420370527,0.35550244608652515,0.38498556412110174,0.41149487305590415,0.4354910865405937,0.4628053090435814,0.49227228317838306,0.5263077687942554,0.5691413079874453,0.6412990242403858,1.2625809465484434,0.9775531914893617,0.47619168899921044,0.0,0.9818230563002681,50,496,6109,PC,no_split,wide,individual,1,0.5075130462646484
0,0.0,0.394056353477279,0.3236335183676794,0.33911110387890836,0.3528875095075027,0.3671809377785279,0.38147845099965727,0.39667263802953046,0.41556553307712,0.4409844048949704,0.4814863098367306,0.7983825776172965,0.9934031413612565,0.40559279955604544,0.0,0.9890861618798955,50,496,6214,PC,no_split,wide,individual,1,0.415632963180542
1,1.0,0.41706915997815164,0.33205808317402263,0.35275851727198343,0.3699713805717683,0.38772343479405696,0.4052327096326075,0.4240321510585742,0.4461224774427742,0.4738799667912314,0.5153680261110732,0.9211261922523796,0.9847916666666666,0.40559279955604544,0.0,0.9890861618798955,50,496,6214,PC,no_split,wide,individual,1,0.415632963180542
0,0.0,0.4581531930219684,0.331872252164889,0.35876428830213525,0.3838835013232928,0.409683558889148,0.4360543535723803,0.4651797285254759,0.5001960229305431,0.5448917957875752,0.613586376655207,1.1371797285254759,0.9967195767195767,0.4716027168314922,0.0,0.9921164021164021,50,496,6253,PC,no_split,wide,individual,1,0.41904664039611816
1,1.0,0.485052240641016,0.35822949291825223,0.3925361024519884,0.4190465998014233,0.4436695045283295,0.4682817983313393,0.4952305018564869,0.5265766801868598,0.5679904759852528,0.6324892245931782,1.2438772694490763,0.9875132275132276,0.4716027168314922,0.0,0.9921164021164021,50,496,6253,PC,no_split,wide,individual,1,0.41904664039611816
0,0.0,0.45594832625152776,0.36291413167189296,0.3849696439799205,0.40451838343257446,0.42314234891606334,0.4420012781733491,0.46417262085448857,0.4878281314833516,0.5186780632191507,0.5666064269714893,1.0616603490042686,0.9973684210526316,0.46093511669219633,0.0,0.9969553805774278,50,496,6262,PC,no_split,wide,individual,1,0.41408371925354004
1,1.0,0.46589579828239025,0.36881226854975774,0.39301313943112504,0.4141397073445967,0.43483146317967525,0.45567043319042516,0.47777739530787167,0.5002107616537542,0.530721035161376,0.575238473462179,1.0227455587188012,0.996544502617801,0.46093511669219633,0.0,0.9969553805774278,50,496,6262,PC,no_split,wide,individual,1,0.41408371925354004
0,0.0,0.49219825368234676,0.3794472041397691,0.40718799975572456,0.43126363934802,0.45395232673825137,0.47905672250965936,0.5045721564627,0.532725870813557,0.5698315168541477,0.6229596415444539,0.969182218655631,0.9994736842105263,0.5068366747349783,0.0,0.9986315789473684,50,496,6361,PC,no_split,wide,individual,1,0.4288771152496338
1,1.0,0.52147509578761,0.4038688768762955,0.4387227933107012,0.4658777888995384,0.49043050631970664,0.5137474613432105,0.5380253794280945,0.5650700112887966,0.5987683543942937,0.6463900662533474,1.0359046909100873,0.9977894736842106,0.5068366747349783,0.0,0.9986315789473684,50,496,6361,PC,no_split,wide,individual,1,0.4288771152496338
0,0.0,0.41117013306254485,0.3398209948644775,0.35646945003836195,0.3701693631166982,0.38416865634663655,0.39916759619154407,0.41507618264457713,0.4340672481845346,0.4588904789958349,0.49847466705935495,0.9027737979893287,0.9936842105263158,0.41832171117669564,0.0,0.9913456464379947,50,496,6427,PC,no_split,wide,individual,1,0.5142006874084473
1,1.0,0.42551112832848753,0.3470084962522119,0.36645863978305937,0.38329932015504165,0.40014837013960236,0.41587989529326946,0.43302922063520227,0.4524316141448029,0.4771022912821027,0.5170668612356973,0.8054848327195004,0.988994708994709,0.41832171117669564,0.0,0.9913456464379947,50,496,6427,PC,no_split,wide,individual,1,0.5142006874084473
0,0.0,0.462816434899711,0.3709371016628961,0.39137990485943985,0.4089163016122077,0.4272566264638986,0.44590461719903723,0.46694418872312,0.4913799048594399,0.5247031054868498,0.5743561083407671,1.2473536644171075,0.9906382978723405,0.4665528780202784,0.0,0.98816,50,496,6583,PC,no_split,wide,individual,1,0.5220918655395508
1,1.0,0.47030930212010014,0.3749785079810217,0.3975881379224203,0.41691126498802217,0.43583967515481753,0.4545881379224203,0.4762324026879026,0.5001682944856085,0.5338538564801063,0.585902404992523,1.0797419457477686,0.985668449197861,0.4665528780202784,0.0,0.98816,50,496,6583,PC,no_split,wide,individual,1,0.5220918655395508
0,0.0,0.45142616391460066,0.3468818878207068,0.3716130613300737,0.39235590403308723,0.4123508561421965,0.4323880670604717,0.4554048687514957,0.48408853017275616,0.521394844939164,0.5791969004288259,1.1361065140864617,0.9937566137566137,0.459370511593066,0.0,0.9903743315508021,50,496,6634,PC,no_split,wide,individual,1,0.436748743057251
1,1.0,0.4674866289510657,0.3550220873216121,0.38162252682402964,0.4046083392414844,0.4279402882651672,0.45039332702337304,0.4751439719157102,0.5042603822589385,0.5421735398178679,0.6014476795359534,1.1512574068996184,0.9869189189189189,0.459370511593066,0.0,0.9903743315508021,50,496,6634,PC,no_split,wide,individual,1,0.436748743057251
0,0.0,0.4548590001763617,0.36942018103947655,0.388447909287537,0.4054938254980215,0.4227268899454752,0.4400634261433778,0.4599689228090467,0.48147707925398386,0.5113710482465958,0.5593807772594683,0.927519687780672,0.9966666666666667,0.4651497644278848,0.0,0.9934725848563969,50,496,6844,PC,no_split,wide,individual,1,0.41522860527038574
1,1.0,0.4754944070262745,0.3843653427571122,0.4092896777443916,0.42803977893708195,0.4466457703305416,0.46426076252742354,0.4832163657599345,0.5067045066480279,0.5354892916174839,0.5802505050358633,0.8881546979960995,0.990261780104712,0.4651497644278848,0.0,0.9934725848563969,50,496,6844,PC,no_split,wide,individual,1,0.41522860527038574
0,0.0,0.43452654984841216,0.32075692042321197,0.34651769398312315,0.3693391075095592,0.3916822365875583,0.4143800708285448,0.44177012327514026,0.4723513367660516,0.5126764250760695,0.5741941142143595,1.1022412452575736,0.9994736842105263,0.46709742942956406,0.0,0.9958115183246073,50,496,7624,PC,no_split,wide,individual,1,0.4879894256591797
1,1.0,0.4993290290150788,0.3641044203155944,0.40519181549953764,0.43380024740380557,0.46224124525757365,0.49032477096123095,0.5200819770379825,0.5511391309225526,0.5877076643623266,0.6445401626642033,1.0751435786695291,0.9921875,0.46709742942956406,0.0,0.9958115183246073,50,496,7624,PC,no_split,wide,individual,1,0.4879894256591797
0,0.0,0.4195494363187797,0.3215468480792938,0.3439883459503504,0.36373068897756045,0.3837555477469549,0.403361054434217,0.4254087864380573,0.45286348998379483,0.4856075467897843,0.5383878342427394,0.9873806585108164,0.9959375,0.42779125569050747,0.0,0.9941361256544503,50,496,7756,PC,no_split,wide,individual,1,0.42916107177734375
1,1.0,0.4361198310556218,0.3297137437435583,0.3555399020584323,0.37910538324020665,0.40095493167176355,0.4226485801611374,0.44600087625786305,0.47250944535019856,0.5069071487639414,0.5589137398198271,1.0740104362043301,0.9923157894736843,0.42779125569050747,0.0,0.9941361256544503,50,496,7756,PC,no_split,wide,individual,1,0.42916107177734375
0,0.0,0.4311052000710777,0.3194128471142812,0.3438236045133888,0.3658381529449412,0.3883103220678572,0.41004687025382713,0.4344668138113512,0.4657043343530801,0.5052303976102135,0.567303383492624,1.1528801691892212,0.9947872340425532,0.4433510679622419,0.0,0.9891689008042895,50,496,7768,PC,no_split,wide,individual,1,0.4221470355987549
1,1.0,0.4557955174948845,0.3368070281565556,0.36624103671772107,0.3915377717193496,0.41536532260279396,0.4391103891792959,0.46461733227975066,0.4952335373260615,0.5332464754326576,0.5957200077845095,1.1360860616310358,0.9834594594594595,0.4433510679622419,0.0,0.9891689008042895,50,496,7768,PC,no_split,wide,individual,1,0.4221470355987549
0,0.0,0.4179880299762979,0.30357555097402883,0.3248409089041903,0.34567239726076837,0.36764540643425664,0.39197074766493395,0.41773057000299024,0.4519214500702556,0.4973992860392247,0.5678531506148465,1.3137503684435046,0.9884816753926702,0.4291382917564026,0.0,0.9793193717277487,50,496,7807,PC,no_split,wide,individual,1,0.5204622745513916
1,1.0,0.44028855353650737,0.31965538984673114,0.34910528717479367,0.37510528717479363,0.3995376817267545,0.42291693237665273,0.449698690952369,0.478686084751067,0.5168709200782328,0.5805139170258312,1.1749214500702556,0.9701570680628272,0.4291382917564026,0.0,0.9793193717277487,50,496,7807,PC,no_split,wide,individual,1,0.5204622745513916
0,0.0,0.4017181146978992,0.31949011762838264,0.3370699941634089,0.3526288323328598,0.3684905536008161,0.38474698397229146,0.4032205454728175,0.4256377653833955,0.4563301645283882,0.5054880879241095,0.9957197761812357,0.9807291666666667,0.40634490931732176,0.0,0.9746981627296588,50,496,7813,PC,no_split,wide,individual,1,0.5288701057434082
1,1.0,0.41104514512117957,0.3243266330483015,0.3434861938764818,0.3597161084106648,0.3764854715085408,0.39434935064543863,0.4144515031892293,0.43792060346102896,0.4695707908769343,0.5176585070316033,1.217382014408561,0.9685714285714285,0.40634490931732176,0.0,0.9746981627296588,50,496,7813,PC,no_split,wide,individual,1,0.5288701057434082
0,0.0,0.41550171126183905,0.32189123967428734,0.34673213019528487,0.36789559397207744,0.387741010814156,0.4064367875426571,0.4277418939293348,0.45041722250119187,0.47813433300330554,0.5181651795484348,0.9127396861413878,0.9993717277486911,0.42589631859168203,0.0,0.9991623036649214,50,496,7828,PC,no_split,wide,individual,1,0.4370853900909424
1,1.0,0.43629092592152496,0.3381522096333718,0.3679104449251145,0.39005418650353735,0.41066002842389926,0.43078596804749897,0.4510244963779612,0.47372100813509327,0.5004832281489213,0.540507777601216,0.8548520509941765,0.9989528795811519,0.42589631859168203,0.0,0.9991623036649214,50,496,7828,PC,no_split,wide,individual,1,0.4370853900909424
0,0.0,0.5590811257150347,0.399405271853788,0.4307299301570578,0.4594329199207552,0.4897091199387735,0.5208853786141472,0.5578859659511944,0.6019780074944626,0.663748660484928,0.7661836961626076,1.4912744036776144,0.9728042328042328,0.5670446901076949,0.0,0.9664893617021276,50,496,7840,PC,no_split,wide,individual,1,0.41584157943725586
1,1.0,0.5750934263120411,0.4105343292154016,0.44506659134182563,0.47814352044418124,0.5104309409368081,0.5418933149513899,0.5793477989023567,0.624585095143394,0.6842538821274057,0.7759687122860237,1.5245154171659583,0.9601069518716577,0.5670446901076949,0.0,0.9664893617021276,50,496,7840,PC,no_split,wide,individual,1,0.41584157943725586
0,0.0,0.457114576535476,0.362371606466231,0.3879506175744347,0.4085401331977829,0.42756761118854164,0.4463545897409628,0.46708249979581534,0.48954940210595305,0.5203070642401515,0.564296764408608,0.8693959440021702,0.9993717277486911,0.4662321158024917,0.0,0.9991623036649214,50,496,7924,PC,no_split,wide,individual,1,0.41777992248535156
1,1.0,0.47534965506950744,0.37877483981057364,0.4063050879525194,0.4296509966706791,0.4490341760111861,0.4680858572151789,0.48796570790759775,0.5097820698435035,0.5387765562541023,0.5810506825470478,0.9979340083118953,0.9989528795811519,0.4662321158024917,0.0,0.9991623036649214,50,496,7924,PC,no_split,wide,individual,1,0.41777992248535156
0,0.0,0.4481441187806926,0.34834972736415687,0.3746801377054566,0.3973893138225405,0.4173388865565869,0.4386014060700993,0.4604363772137835,0.4856400678207273,0.5150831113364812,0.5589467600594338,0.935706314575313,0.9992592592592593,0.4586415423277714,0.0,0.9987267904509284,50,496,7939,PC,no_split,wide,individual,1,0.42676496505737305
1,1.0,0.46919480323414303,0.36407819512563405,0.39409599432240167,0.41787582796699885,0.4399695856253541,0.46198445587234505,0.48357917615800244,0.5091449110485392,0.53790968769021,0.5835870445509205,0.9237042389830722,0.9981914893617021,0.4586415423277714,0.0,0.9987267904509284,50,496,7939,PC,no_split,wide,individual,1,0.42676496505737305
0,0.0,0.4583830261018944,0.33271069237566336,0.357926413534402,0.38098892810251045,0.4040240894328948,0.42912091905747274,0.45793427482908994,0.49438545802896494,0.5419620089428335,0.6208189704032668,1.3697106923756632,0.9885393258426967,0.4722310057966974,0.0,0.98,50,496,8026,PC,no_split,wide,individual,1,0.5115177631378174
1,1.0,0.4855550078814268,0.3449063201237726,0.3786874506092729,0.4074574980044101,0.43578155913782585,0.4627806354274816,0.4922035779261921,0.5277494285048329,0.5792086997403111,0.6523091680499175,1.3858074564811824,0.9717837837837838,0.4722310057966974,0.0,0.98,50,496,8026,PC,no_split,wide,individual,1,0.5115177631378174
0,0.0,0.47283115495907463,0.3682172398723233,0.38901493124321485,0.40888347121572927,0.42960944692118586,0.4508834712157293,0.4758729676006029,0.5056096059500411,0.5435464610147142,0.6038813530605658,1.2110772253043605,0.9852631578947368,0.47957626022223243,0.0,0.9825789473684211,50,496,808,PC,no_split,wide,individual,1,0.5043818950653076
1,1.0,0.4863213654853904,0.37558766104890223,0.40172404696290825,0.42382722178798526,0.445658733454685,0.46752523471717955,0.49369833017188397,0.5208136111177556,0.5583549641023943,0.6185330497162393,1.3414206084919993,0.9798947368421053,0.47957626022223243,0.0,0.9825789473684211,50,496,808,PC,no_split,wide,individual,1,0.5043818950653076
0,0.0,0.4610442148965954,0.32468038522757275,0.3520896788325882,0.37582478107004297,0.4023995415928935,0.4299382752908837,0.4611876247443457,0.4989222750112189,0.5500934034154338,0.6391593784138502,1.3668866525789385,0.9700523560209424,0.4649189076638093,0.0,0.9660574412532638,50,496,8311,PC,no_split,wide,individual,1,0.4958803653717041
1,1.0,0.46877341973952735,0.32838012525937993,0.35532688495102777,0.3837021181954864,0.41186476505634667,0.44043402468048626,0.4708946101051299,0.5083851110290194,0.5613777173108797,0.6464331604919497,1.3754489539168393,0.9620833333333333,0.4649189076638093,0.0,0.9660574412532638,50,496,8311,PC,no_split,wide,individual,1,0.4958803653717041
0,0.0,0.459150103409704,0.36588421263840176,0.3850579905219648,0.4027985266705373,0.42013286554439927,0.43866592670704785,0.46034032135870295,0.4867694394736434,0.5209340176378655,0.5776611735233105,1.108754444921263,0.9872916666666667,0.46539613019541837,0.0,0.9848148148148148,50,496,833,PC,no_split,wide,individual,1,0.4156453609466553
1,1.0,0.4718436417161556,0.37028423789830184,0.39315690870514874,0.4133659127279836,0.43328062351898017,0.45384869295740843,0.47688320952437124,0.5031783246488509,0.5396966936443129,0.5939746443762891,1.1312545326627585,0.9822580645161291,0.46539613019541837,0.0,0.9848148148148148,50,496,833,PC,no_split,wide,individual,1,0.4156453609466553
0,0.0,0.574369528483929,0.36653544388350606,0.405494286766965,0.441893839173254,0.48244568275356076,0.5245455623187871,0.575340514064324,0.6372704016048328,0.7225687065763441,0.8536592307222665,1.5000147491772873,0.981195652173913,0.5863526495180065,0.0,0.9727027027027026,50,496,837,PC,no_split,wide,individual,1,0.491835355758667
1,1.0,0.5982069197882768,0.3815300632889576,0.43471323820328844,0.4778072437678544,0.5219870439441253,0.563440827644466,0.6112395744755731,0.6609500129171256,0.7367103047245511,0.8585371499302167,1.476882519999179,0.9643010752688173,0.5863526495180065,0.0,0.9727027027027026,50,496,837,PC,no_split,wide,individual,1,0.491835355758667
0,0.0,0.39641302504273995,0.31747874372737955,0.3367137181696518,0.3516165614449203,0.36684482914349825,0.3834671759986463,0.400740027069124,0.42154725657317343,0.4491469565173907,0.49240187716576206,0.7943953016144494,0.9968586387434555,0.4055000344117121,0.0,0.9955263157894737,50,496,8446,PC,no_split,wide,individual,1,0.41710400581359863
1,1.0,0.4146832026099856,0.32903454308388436,0.351091627809931,0.36973943575173557,0.3862129560556059,0.4038476273755118,0.42300184867084045,0.4445199376755321,0.47197298252646946,0.511613454204335,1.1922129560556058,0.9941798941798942,0.4055000344117121,0.0,0.9955263157894737,50,496,8446,PC,no_split,wide,individual,1,0.41710400581359863
0,0.0,0.4305435269734891,0.3366493859176272,0.3568794575374958,0.3754514925837113,0.39323915884581,0.41164709680125955,0.4316245208645409,0.4580527009693546,0.4914687483981429,0.5486442354057999,1.1461590823374517,0.9857142857142858,0.4383960627159185,0.0,0.9834574468085107,50,496,845,PC,no_split,wide,individual,1,0.4266376495361328
1,1.0,0.44633258279783905,0.34302882310449984,0.3664179020253129,0.38664423540579995,0.4074687483981429,0.4284841077844642,0.45134298471721757,0.4780604047295651,0.5156801499891821,0.5741512716323044,1.1071884185057246,0.9811764705882353,0.4383960627159185,0.0,0.9834574468085107,50,496,845,PC,no_split,wide,individual,1,0.4266376495361328
0,0.0,0.4838937160495013,0.3516337269404891,0.383381337161007,0.41085495455352844,0.43757846829504926,0.4651942136598403,0.4956410941218335,0.5294203783700606,0.5707683516431085,0.6364737729202153,1.2882208626087703,0.9987434554973822,0.501307480447407,0.0,0.9971052631578947,50,496,8521,PC,no_split,wide,individual,1,0.5069773197174072
1,1.0,0.518905517484444,0.37876835164310835,0.41821987568645735,0.45050858469008054,0.4781766325528567,0.5058830089755498,0.5353600305972472,0.5695746115892817,0.6132616308528704,0.6755794555308466,1.2091942136598404,0.9954497354497355,0.501307480447407,0.0,0.9971052631578947,50,496,8521,PC,no_split,wide,individual,1,0.5069773197174072
0,0.0,0.5568275817003359,0.39278938112850464,0.43474197838929607,0.46908574895978156,0.5016579965107987,0.5362039480143848,0.5733022685346881,0.6143094506140431,0.6668945584708722,0.7468989762885506,1.3259275262222041,0.9983695652173913,0.5658552359780359,0.0,0.9976344086021506,50,496,8704,PC,no_split,wide,individual,1,0.5108182430267334
1,1.0,0.5746908125051462,0.411622024749221,0.4584892989362404,0.49309306139724,0.5272085169275846,0.5599101444034089,0.5942690984851942,0.6318140158483426,0.6806873302242391,0.7536989877642598,1.4320576299575023,0.9969148936170212,0.5658552359780359,0.0,0.9976344086021506,50,496,8704,PC,no_split,wide,individual,1,0.5108182430267334
0,0.0,0.4455944400250666,0.33444244501791276,0.36408917271387253,0.3891970097869422,0.41200126600953935,0.4362169459803179,0.46113671069467455,0.4864464355117665,0.5185033036713641,0.5697623155945755,0.9516710262167185,0.9995652173913043,0.45422711572488794,0.0,0.9993424657534247,50,496,8755,PC,no_split,wide,individual,1,0.4280378818511963
1,1.0,0.4630028744473582,0.3504222831672093,0.38308917271387255,0.4097797879020635,0.4335261227598498,0.45576231559457553,0.47936937243340816,0.5051050062307001,0.5370251082855904,0.5830495845859771,0.9247052674255264,0.9991160220994475,0.45422711572488794,0.0,0.9993424657534247,50,496,8755,PC,no_split,wide,individual,1,0.4280378818511963
0,0.0,0.45251214193243544,0.3503383738226069,0.3721102232300398,0.3901131372885601,0.4108958237561832,0.43091165264422193,0.4550409656719415,0.48339546728482946,0.5207624714364966,0.5824518721808352,1.3999239421761025,0.9854166666666667,0.4594678710991022,0.0,0.98203125,50,496,8785,PC,no_split,wide,individual,1,0.4596397876739502
1,1.0,0.4664236002657688,0.3572607121074952,0.3829167895346443,0.40606266499022103,0.4275126094960163,0.4493001989263067,0.47214777772558303,0.5003722093703745,0.5381229322021946,0.5979494317702897,1.0899865090841347,0.9786458333333333,0.4594678710991022,0.0,0.98203125,50,496,8785,PC,no_split,wide,individual,1,0.4596397876739502
0,0.0,0.4210991305433044,0.31528168032496284,0.34054011972959924,0.36022292741140305,0.38028620845364547,0.4021662542862555,0.42649376436739983,0.4550603591349082,0.4903320229520813,0.5514404046384683,1.2172599683799075,0.9966137566137566,0.4313593733400989,0.0,0.9927851458885941,50,496,8788,PC,no_split,wide,individual,1,0.424898624420166
1,1.0,0.44167419189645085,0.3263271606676247,0.3555085975939929,0.3797449376861195,0.40310555437774076,0.42661554845669103,0.4517630439414197,0.4822814911400218,0.5185281426180984,0.5752428312881277,1.0328016306986243,0.9889361702127659,0.4313593733400989,0.0,0.9927851458885941,50,496,8788,PC,no_split,wide,individual,1,0.424898624420166
0,0.0,0.4732079525907848,0.35814598081356386,0.3798450811581389,0.40029172779220495,0.42196550099682134,0.4454261687818194,0.47130672615316754,0.503595546014502,0.5490104183511001,0.6244132449531631,1.3240102055996845,0.9733333333333334,0.4852124223645099,0.0,0.9631382978723404,50,496,916,PC,no_split,wide,individual,1,0.41654515266418457
1,1.0,0.4973452821892908,0.3648727612008805,0.3920225677297227,0.41789506035080676,0.44277135455402644,0.46952421195266636,0.5007941480524315,0.537556478281175,0.5891846854627081,0.664457923482023,1.355534813650551,0.9528342245989305,0.4852124223645099,0.0,0.9631382978723404,50,496,916,PC,no_split,wide,individual,1,0.41654515266418457
0,0.0,0.4180933114013572,0.32428856044171395,0.343189073912143,0.3605347517910445,0.3788568628218774,0.39849474611569535,0.41949474611569537,0.44483698849409553,0.47955563490871034,0.5371636169666134,1.1167005325614618,0.9843157894736843,0.4260260932773069,0.0,0.9784251968503938,50,496,985,PC,no_split,wide,individual,1,0.5151293277740479
1,1.0,0.43391734226385376,0.3298803180800462,0.3538669152709599,0.37485732065379457,0.39520932589727054,0.4159502409440665,0.43883541030943857,0.4667278933455991,0.501561057282448,0.5611738295070073,1.0807112575748736,0.972565445026178,0.4260260932773069,0.0,0.9784251968503938,50,496,985,PC,no_split,wide,individual,1,0.5151293277740479
0,0.0,0.44716329012526745,0.3479550322689197,0.36961880812304154,0.38924393552480324,0.4080267948912132,0.4275313343261236,0.4513953343951094,0.4771880497262095,0.514183915171541,0.5707109565244618,1.1683457700733195,0.9968780487804878,0.46733972669837687,0.0,0.9910050251256282,50,496,275,PC,no_split,narrow,individual,1,0.5466699600219727
1,1.0,0.4887706567371719,0.36858151269219447,0.40103680545319126,0.42680309537595074,0.4520546094756213,0.476799507532381,0.5021718077932427,0.5321292633664109,0.5672771032105974,0.6234577991736066,1.1073457700733196,0.9847668393782384,0.46733972669837687,0.0,0.9910050251256282,50,496,275,PC,no_split,narrow,individual,1,0.5466699600219727
0,0.0,0.47165977703588163,0.3718389100757989,0.3926092920578491,0.4126040156464752,0.43296532556824413,0.4524988003997463,0.47639242519059927,0.5026280510547315,0.5372846364768518,0.5948760858388307,1.1381237877387302,0.9950476190476191,0.48108539319749777,0.0,0.9896464646464647,50,496,808,PC,no_split,narrow,individual,1,0.5033855438232422
1,1.0,0.49172721789609664,0.3886935312117462,0.41562204601160546,0.4381703234650408,0.45786624988242125,0.47854783596344047,0.5006883666382445,0.5247169430050397,0.5573424914080201,0.6089679038341735,1.1170720275486254,0.9835483870967742,0.48108539319749777,0.0,0.9896464646464647,50,496,808,PC,no_split,narrow,individual,1,0.5033855438232422
0,0.0,0.4611110856924334,0.3457082535890636,0.3717098598397642,0.39413819529762006,0.41641284941015316,0.44021058140342817,0.46511764845403164,0.4968328266431381,0.5388607981347068,0.6072521480672619,1.1402469049472215,0.9988,0.48087967235910006,0.0,0.9945066666666666,50,496,833,PC,no_split,narrow,individual,1,0.4847142696380615
1,1.0,0.5034723428352905,0.37232945519123134,0.4066031688438655,0.4354308375075952,0.46312093763732504,0.4893951061339902,0.5182455355036385,0.5516870596919208,0.5924022524087112,0.6505994580777331,1.0730314774585719,0.9896,0.48087967235910006,0.0,0.9945066666666666,50,496,833,PC,no_split,narrow,individual,1,0.4847142696380615
0,0.0,0.5826833510163971,0.35520825223834085,0.3979088548090865,0.4396626270591964,0.4790069679713431,0.5295167172899722,0.5823480254057026,0.6510772858226235,0.7424739709845525,0.890203316148224,1.4844511924949715,0.9807329842931937,0.602033366333318,0.0,0.9712234042553192,50,496,837,PC,no_split,narrow,individual,1,0.42232370376586914
1,1.0,0.6220109497145717,0.38677682768435234,0.4449042026854716,0.49188287961285726,0.5381927114109737,0.5839221126457743,0.632375724204648,0.695474642791562,0.7764517397606034,0.911564889220152,1.4901152358708294,0.9614054054054054,0.602033366333318,0.0,0.9712234042553192,50,496,837,PC,no_split,narrow,individual,1,0.42232370376586914
0,0.0,0.429718806290934,0.337193366602779,0.3555976573719851,0.37259240585368875,0.39082783987452197,0.4101353850910175,0.4311782168616368,0.45834135734009157,0.49231216584221094,0.5471665416091727,1.0638436074536737,0.9908333333333333,0.44359815789521206,0.0,0.9831550802139037,50,496,845,PC,no_split,narrow,individual,1,0.4227757453918457
1,1.0,0.4582401112359889,0.34978539293661026,0.37746677799828166,0.4005924058536887,0.4217495090392375,0.44324403845426785,0.46821275551434877,0.494121809104791,0.5281731669479228,0.5816910719401256,0.989345643401203,0.975054945054945,0.44359815789521206,0.0,0.9831550802139037,50,496,845,PC,no_split,narrow,individual,1,0.4227757453918457
0,0.0,0.4699195726810602,0.3512936537826501,0.37465184422861997,0.39493431893571707,0.416677660428603,0.44019538764348615,0.4676755288526259,0.49965071036039055,0.5461446865257557,0.6248460928244288,1.3384108184226367,0.9858100558659217,0.49014386489341183,0.0,0.9695628415300547,50,496,916,PC,no_split,narrow,individual,1,0.5031571388244629
1,1.0,0.5095029467437375,0.36782209709328695,0.4001290914208605,0.43037531306184473,0.45816258292065504,0.48670774027272434,0.5176575523397651,0.5533992728508713,0.6027485090764877,0.6770640492560156,1.4633943247486862,0.9540106951871657,0.49014386489341183,0.0,0.9695628415300547,50,496,916,PC,no_split,narrow,individual,1,0.5031571388244629
0,0.0,0.42303968915544965,0.3254081464752541,0.34485734833791737,0.362354719244876,0.3799064905428573,0.39962721141421176,0.42067639133434603,0.44824874163612854,0.4874870100550081,0.5513478313524895,1.3021247427275315,0.9880225988700565,0.444099614744536,0.0,0.9773983739837399,50,496,985,PC,no_split,narrow,individual,1,0.5115289688110352
1,1.0,0.463514233646975,0.33911769012904525,0.3688397090598491,0.3930554740697316,0.42023147570758024,0.445229115259341,0.47290649054285727,0.5042276786881451,0.5476318629487713,0.6082078332505975,1.2573098626544297,0.9676041666666667,0.444099614744536,0.0,0.9773983739837399,50,496,985,PC,no_split,narrow,individual,1,0.5115289688110352
0,0.0,0.41370808041746326,0.3217499185131374,0.3396435956694365,0.3558607790208434,0.37201561447210735,0.3900624317016096,0.41135952248492585,0.4376729369336379,0.4736857340886123,0.5318142493584377,1.1773051637371765,0.9930681818181818,0.447215555297846,0.0,0.9742105263157895,50,496,1108,PC,no_split,narrow,individual,1,0.5077333450317383
1,1.0,0.4761239649985684,0.34576373936325244,0.38180517569559147,0.41069895393766565,0.436668878720942,0.461470981857042,0.48926437091814706,0.5198158272264796,0.5580946652544144,0.617687622638477,1.272667452438649,0.9579411764705882,0.447215555297846,0.0,0.9742105263157895,50,496,1108,PC,no_split,narrow,individual,1,0.5077333450317383
0,0.0,0.44349788818742353,0.32831050982772575,0.3500959222310366,0.3708679833851693,0.3914336768056533,0.41546618602218455,0.44144787158408255,0.4736328415866567,0.5206394238953227,0.5963817200415016,1.464066182703683,0.992462311557789,0.46856338076085585,0.0,0.9794594594594594,50,496,1507,PC,no_split,narrow,individual,1,0.5032949447631836
1,1.0,0.49254430875178384,0.3516332305810133,0.38842888170976736,0.41899583591460243,0.4471470636106782,0.4736434738926358,0.5050230891103117,0.5407431266348587,0.5859290184306951,0.6519248425963258,1.4236502238881577,0.9670192307692308,0.46856338076085585,0.0,0.9794594594594594,50,496,1507,PC,no_split,narrow,individual,1,0.5032949447631836
0,0.0,0.4603068486689601,0.3517029171660136,0.3748911132235659,0.3957805535861807,0.4162628147640205,0.43925296550972626,0.4640573801681234,0.49464971756943754,0.5353382763482958,0.5982137632663859,1.1877116371946934,0.9936559139784946,0.47041989939237394,0.0,0.9895811518324608,50,496,1538,PC,no_split,narrow,individual,1,0.5159399509429932
1,1.0,0.4800169781401034,0.3626369528713778,0.39231282564819614,0.4167805535861807,0.4405815799681582,0.465014230192921,0.4895720268011321,0.5203959516484113,0.5568015083992905,0.6151454226715396,1.043437435464837,0.9857142857142858,0.47041989939237394,0.0,0.9895811518324608,50,496,1538,PC,no_split,narrow,individual,1,0.5159399509429932
0,0.0,0.46529708500672634,0.36503943539624945,0.3850840987535863,0.4035424934417569,0.4218897587063702,0.4420900345588829,0.465340383628305,0.49416542376604816,0.5315407289441298,0.5923791000463818,1.275371145740951,0.9991489361702127,0.4972546352915768,0.0,0.9907650273224043,50,496,1582,PC,no_split,narrow,individual,1,0.4135744571685791
1,1.0,0.5310075535699584,0.4083703868932316,0.4445287871430795,0.4738798536064294,0.49863695629622923,0.5232977412276738,0.5480201477295015,0.5757574775893898,0.6095678023896102,0.661029835604893,1.1174083713081298,0.9819101123595506,0.4972546352915768,0.0,0.9907650273224043,50,496,1582,PC,no_split,narrow,individual,1,0.4135744571685791
0,0.0,0.4401323525170595,0.3454737570532866,0.3613622231586261,0.3755893080028576,0.39057288874788443,0.4083622231586261,0.42858484661395396,0.45699987693312555,0.498530268767183,0.5743900909547145,1.4810970894131539,0.9948743718592965,0.4770936671100747,0.0,0.9608521303258145,50,496,1583,PC,no_split,narrow,individual,1,0.4161343574523926
1,1.0,0.5138701751301249,0.3780005809634798,0.41895838151672693,0.45007579604235537,0.4772819238243882,0.5020144506095343,0.5288789667945676,0.5583900909547146,0.5973129043323896,0.6568748766913163,1.478097089413154,0.927,0.4770936671100747,0.0,0.9608521303258145,50,496,1583,PC,no_split,narrow,individual,1,0.4161343574523926
0,0.0,0.570857015810769,0.3867843549420941,0.4214965242843799,0.4544255514426459,0.4880411338690682,0.5250398595887065,0.5675312786396973,0.6217111296867315,0.6964110633627003,0.8143785721780974,1.5252635553591651,0.9817486338797814,0.5870142952799338,0.0,0.9723626373626374,50,496,1597,PC,no_split,narrow,individual,1,0.47348880767822266
1,1.0,0.6033501082238959,0.40932442876764746,0.4526500281662149,0.4923094251764651,0.5308400940310808,0.5698748891189578,0.6145582654594326,0.6666168627078787,0.7298333182434741,0.837369312742553,1.5068558420444467,0.9628729281767956,0.5870142952799338,0.0,0.9723626373626374,50,496,1597,PC,no_split,narrow,individual,1,0.47348880767822266
0,0.0,0.4210230919774978,0.3283136732650951,0.3486610943432816,0.36568057060695863,0.38360071646977484,0.40214081109552424,0.42273371392370523,0.4494506762686608,0.4829641756118654,0.5401038627719295,1.0666405816261197,0.9971584699453552,0.4478038508846016,0.0,0.9890133333333333,50,496,1601,PC,no_split,narrow,individual,1,0.5142333507537842
1,1.0,0.47332926171793493,0.3500618812453051,0.3827263453387674,0.4108234764550701,0.43494526332885214,0.4596852461883503,0.48568524618835035,0.515813010687054,0.5543649416944261,0.6098687926645131,1.0968640115498651,0.98125,0.4478038508846016,0.0,0.9890133333333333,50,496,1601,PC,no_split,narrow,individual,1,0.5142333507537842
0,0.0,0.49147621586141177,0.3551543308407916,0.38115933278493075,0.40644679360176117,0.43215177673308663,0.45815987545255665,0.4884078605394077,0.5304862600234661,0.5826282654566592,0.6744926927875549,1.3014153657681413,0.9967326732673267,0.5175511402732078,0.0,0.988978494623656,50,496,1614,PC,no_split,narrow,individual,1,0.5134508609771729
1,1.0,0.5485342857507537,0.3916094083185827,0.43625298507612037,0.47013624657436925,0.5007408770845053,0.5310938121354049,0.5652064302643385,0.6034499813297937,0.6482063011022591,0.722403766770865,1.430459454062243,0.979764705882353,0.5175511402732078,0.0,0.988978494623656,50,496,1614,PC,no_split,narrow,individual,1,0.5134508609771729
0,0.0,0.4608382066821992,0.34260588093640487,0.3698473483603268,0.39484785866277894,0.41929320100874834,0.44376284746572303,0.4699973006554092,0.5015060238477181,0.5409922716647252,0.6020050824168433,1.1896637665904963,0.9993370165745856,0.49251347914512456,0.0,0.997578947368421,50,496,1638,PC,no_split,narrow,individual,1,0.42043423652648926
1,1.0,0.5213236515862776,0.38600336991382855,0.42564686091103043,0.4589367087679398,0.48605058435680965,0.5140867831542641,0.5407187810737144,0.5716077166241614,0.6107939818158664,0.6646851222808111,1.0453016847027552,0.9959798994974874,0.49251347914512456,0.0,0.997578947368421,50,496,1638,PC,no_split,narrow,individual,1,0.42043423652648926
0,0.0,0.408953671027432,0.30761532076784437,0.329693379660347,0.3485795060803002,0.3676791217676029,0.3887265880184385,0.4115795060803002,0.4393968817625375,0.4755369146937399,0.5344242059772426,1.076936023917711,0.996734693877551,0.43565995327618057,0.0,0.991644204851752,50,496,1657,PC,no_split,narrow,individual,1,0.504624605178833
1,1.0,0.4655709893947789,0.33524298720161605,0.37303003626763126,0.40122264990337886,0.4278158005040287,0.45434926969989564,0.4808216759347179,0.5118503087043013,0.549119462618225,0.6074710516892317,1.2015759890059818,0.9859428571428571,0.43565995327618057,0.0,0.991644204851752,50,496,1657,PC,no_split,narrow,individual,1,0.504624605178833
0,0.0,0.46227942442970466,0.36734998512256534,0.38705908474784756,0.40444826932974537,0.42285510354696365,0.44218089596638094,0.4646482797089979,0.490993079659086,0.524871977114131,0.5820806576641897,1.211454991419314,0.9968205128205129,0.4835846770653939,0.0,0.9897969543147208,50,496,1663,PC,no_split,narrow,individual,1,0.41699695587158203
1,1.0,0.5044616834169485,0.39168166492926043,0.4229636906801844,0.44793812459384763,0.4705111614106752,0.492560086945251,0.5177629219078302,0.5446816649292605,0.5780642149073518,0.6277997281030842,1.0896573905846807,0.9829145728643216,0.4835846770653939,0.0,0.9897969543147208,50,496,1663,PC,no_split,narrow,individual,1,0.41699695587158203
0,0.0,0.5001588207653099,0.3684255185596795,0.39787374525722297,0.4237419982663921,0.4485634762923882,0.4770395087594664,0.5056991026505736,0.5416145725192941,0.5886769740351258,0.6637502190946696,1.2727868523140047,0.9953591160220995,0.5175163345774646,0.0,0.9923204419889503,50,496,1761,PC,no_split,narrow,individual,1,0.41898369789123535
1,1.0,0.5348738483896193,0.38981373082408005,0.4278836470893588,0.45802097424110555,0.4904587419449432,0.5183129087879577,0.5502382917206923,0.5858874262251292,0.6288166580169519,0.6978469367398614,1.2186987561830733,0.9892817679558011,0.5175163345774646,0.0,0.9923204419889503,50,496,1761,PC,no_split,narrow,individual,1,0.41898369789123535
0,0.0,0.4593253776406873,0.337865280805865,0.363313988594055,0.3856437850232503,0.4083308277262678,0.43320504537061844,0.4606187667354254,0.49399341120689483,0.5378449305178878,0.6117245786434439,1.359958322059008,0.990108695652174,0.47667693933281424,0.0,0.982,50,496,1768,PC,no_split,narrow,individual,1,0.5085721015930176
1,1.0,0.4938419250927678,0.3556784379365246,0.3889578373068095,0.41812851368383286,0.4456403450018754,0.47473596408207086,0.5037557807366908,0.5381497104485117,0.5843308277262678,0.6578513511730371,1.381187078957874,0.9739784946236559,0.47667693933281424,0.0,0.982,50,496,1768,PC,no_split,narrow,individual,1,0.5085721015930176
0,0.0,0.39005206788192515,0.29648475476932223,0.3143144908319974,0.3306436851084557,0.34748073423729825,0.36561983019162836,0.38722530091034,0.4134922912952079,0.45267437918860093,0.5123204839614921,1.1601312710616325,0.9906145251396649,0.4103987762737634,0.0,0.9758288770053476,50,496,1813,PC,no_split,narrow,individual,1,0.5084726810455322
1,1.0,0.42907601115652766,0.31159942085489667,0.34030590800225474,0.3649034289084954,0.38855127739259493,0.4123639166009967,0.4388338389369194,0.4680365834135891,0.507256725974078,0.566745291257763,1.1393773184148457,0.9622564102564103,0.4103987762737634,0.0,0.9758288770053476,50,496,1813,PC,no_split,narrow,individual,1,0.5084726810455322
0,0.0,0.4065481980262806,0.3115940473025767,0.33004926635339327,0.34597982542690603,0.36323629507299865,0.3820509387775135,0.4041749100240753,0.43162285451636934,0.4697322402015004,0.5331749100240754,1.1729139612281128,0.9944390243902439,0.4288733192530375,0.0,0.9806930693069307,50,496,1821,PC,no_split,narrow,individual,1,0.439328670501709
1,1.0,0.4518715597127619,0.33342989360449665,0.36404667727080975,0.3904648041891348,0.41314697864653227,0.43898991685016486,0.46434461353124246,0.49413308056060057,0.5301284478652901,0.585191291026104,1.104712141981383,0.9665326633165829,0.4288733192530375,0.0,0.9806930693069307,50,496,1821,PC,no_split,narrow,individual,1,0.439328670501709
0,0.0,0.4007530289326486,0.31695028296491284,0.33343589941581186,0.3486550288014588,0.3646550288014588,0.381657866465136,0.4007960441135785,0.42501879100121853,0.4560574502236217,0.5088478576432801,0.9964185336162953,0.9859668508287293,0.41180120807923376,0.0,0.9790425531914894,50,496,3286,PC,no_split,narrow,individual,1,0.5131471157073975
1,1.0,0.42205618462042305,0.32578829782494606,0.34795028296491287,0.3674137467600536,0.3861695791706155,0.40595028296491287,0.42793015172900006,0.4536160913849306,0.4868495602921831,0.5392074794777327,1.0626755813623794,0.9726153846153847,0.41180120807923376,0.0,0.9790425531914894,50,496,3286,PC,no_split,narrow,individual,1,0.5131471157073975
0,0.0,0.4754206980647481,0.35634273017556894,0.3822319109130414,0.4050708706459321,0.4293443709367906,0.4539384471017352,0.48008007800355823,0.5115030090638644,0.5560143112467276,0.6254843592411812,1.3045030090638643,0.9972727272727273,0.5008999987640488,0.0,0.9932417582417582,50,496,3292,PC,no_split,narrow,individual,1,0.4231686592102051
1,1.0,0.524752961120841,0.38384375451046165,0.42138372000708846,0.4524822870386608,0.48188842448088826,0.5095620366275648,0.5397332139231994,0.5754348631840707,0.6189025352014506,0.6818365910314811,1.1865206643012107,0.989468085106383,0.5008999987640488,0.0,0.9932417582417582,50,496,3292,PC,no_split,narrow,individual,1,0.4231686592102051
0,0.0,0.39791561341723325,0.31168001326329814,0.32910633076972634,0.3449332170457845,0.3617006332765342,0.378041648198646,0.3974391142647387,0.4209256994281927,0.45324294587182684,0.5095408576630712,1.0117562652892336,0.9985026737967915,0.43362502212617143,0.0,0.9878441558441559,50,496,3487,PC,no_split,narrow,individual,1,0.41612863540649414
1,1.0,0.467350574795724,0.34878719685077075,0.3835252922305998,0.4113133139248141,0.4350545847128621,0.4591136540476647,0.48319331009190203,0.5103967259753126,0.5429357134878063,0.5938019766181132,1.0831063307697264,0.9777777777777777,0.43362502212617143,0.0,0.9878441558441559,50,496,3487,PC,no_split,narrow,individual,1,0.41612863540649414
0,0.0,0.41177936089897305,0.3413960204315359,0.35609175259418285,0.3694120266782774,0.38231228122209987,0.395924994651214,0.41162997823863556,0.4303247726112634,0.45730644251945485,0.5009005954787288,0.9693064425194547,0.9954228855721393,0.4302738402787241,0.0,0.9874619289340102,50,496,3580,PC,no_split,narrow,individual,1,0.4265730381011963
1,1.0,0.4495349302027134,0.3589554936168206,0.3824087789737325,0.4024984437362584,0.4209998402263862,0.43744744488600945,0.45817343784537895,0.48089092080673357,0.5095226526433462,0.5536632765607131,0.9113210009718178,0.9791709844559585,0.4302738402787241,0.0,0.9874619289340102,50,496,3580,PC,no_split,narrow,individual,1,0.4265730381011963
0,0.0,0.49916066425484446,0.35613646097833973,0.3829358059759294,0.40726913997716024,0.43365007984629955,0.46321832411851005,0.4955311462384219,0.5352804714680918,0.5943650723135783,0.6901761888576586,1.4981174986581447,0.9760215053763441,0.5116183794571257,0.0,0.9619889502762431,50,496,3625,PC,no_split,narrow,individual,1,0.5087132453918457
1,1.0,0.5247839193868092,0.3668529848954211,0.4026413155695979,0.4336499071487342,0.4641602977059311,0.49609126191534325,0.5311364609783398,0.5722481489994089,0.6265130286908943,0.717104412066732,1.494914542057202,0.9471590909090909,0.5116183794571257,0.0,0.9619889502762431,50,496,3625,PC,no_split,narrow,individual,1,0.5087132453918457
0,0.0,0.5270454639282673,0.3817120720395386,0.41874682161397714,0.4512372255957408,0.47977394039063115,0.5097737106514824,0.5435363389555341,0.5794297051995714,0.6255392086590744,0.691775864134597,1.1915972956873093,0.9997752808988764,0.5645004796098847,0.0,0.9988617886178862,50,496,3754,PC,no_split,narrow,individual,1,0.5085504055023193
1,1.0,0.5994062010304497,0.43645014221294726,0.48510931265935175,0.5235331703257989,0.5571024209834979,0.5911946514886581,0.6255393538273893,0.6633556375703287,0.7071240404422556,0.769626356168203,1.1647402606025234,0.9980104712041885,0.5645004796098847,0.0,0.9988617886178862,50,496,3754,PC,no_split,narrow,individual,1,0.5085504055023193
0,0.0,0.4150759507737677,0.33055676247568233,0.3506811754670546,0.3677738270353923,0.3850890215576103,0.4013958729576963,0.4206188222417609,0.4425408336373695,0.4715301988193397,0.5170036221182127,1.057354153355217,0.9979787234042553,0.43083111282866793,0.0,0.9962694300518135,50,496,3910,PC,no_split,narrow,individual,1,0.4943709373474121
1,1.0,0.4457905596282702,0.3508984117636149,0.37794143120610135,0.39861704504605205,0.41858195974693835,0.43730326409847975,0.45735124721755194,0.47991248842462164,0.5070344380668994,0.5491969407061593,0.9506998103477847,0.9946464646464647,0.43083111282866793,0.0,0.9962694300518135,50,496,3910,PC,no_split,narrow,individual,1,0.4943709373474121
0,0.0,0.404795864847202,0.33705884178651935,0.3514447724926177,0.3639206548392809,0.37636037538836536,0.3906047119749466,0.4059792552695085,0.4257674237612883,0.4507207000405392,0.4910720631699515,0.9904447724926176,0.9917127071823204,0.4171024007588042,0.0,0.9849473684210527,50,496,4222,PC,no_split,narrow,individual,1,0.4164772033691406
1,1.0,0.42829578266835194,0.3462274036699098,0.3669185956631969,0.38396526202226894,0.39969959414551676,0.41633927630513234,0.43398854962158256,0.4559845629419795,0.48407618691788057,0.5242414117085779,0.9243271669612291,0.9787939698492463,0.4171024007588042,0.0,0.9849473684210527,50,496,4222,PC,no_split,narrow,individual,1,0.4164772033691406
0,0.0,0.47821831936884013,0.33389521017625984,0.3601120019543884,0.38256362469433425,0.40708877964056367,0.43402305624721504,0.46615954012615074,0.5093490065680736,0.5715153768806266,0.6839213907994093,1.4842739718497873,0.9821212121212122,0.5011034988716772,0.0,0.9639294710327456,50,496,4264,PC,no_split,narrow,individual,1,0.421339750289917
1,1.0,0.5238736774724897,0.34943260969415996,0.3909917172949506,0.42610503526024096,0.4593241049536421,0.4955506260081702,0.5340432126281562,0.5788536202272615,0.638015818004033,0.7323206088713988,1.4555437983280402,0.9458291457286432,0.5011034988716772,0.0,0.9639294710327456,50,496,4264,PC,no_split,narrow,individual,1,0.421339750289917
0,0.0,0.42770228252964565,0.34194192116214367,0.36320488069747553,0.3810762861242268,0.39787475593931926,0.4150091653248189,0.4336819153543049,0.45671651249097744,0.48559849602487715,0.5271686823142903,0.9338747559393192,0.9993650793650793,0.44679592843486754,0.0,0.9977173913043478,50,496,5281,PC,no_split,narrow,individual,1,0.4191904067993164
1,1.0,0.466956258468873,0.3674114772181672,0.39552622004441756,0.41879462864237266,0.4397981342195028,0.46006737630598493,0.4806921224659808,0.5041817992537925,0.5337406869851983,0.5739200126717381,0.8367739038532002,0.9959776536312849,0.44679592843486754,0.0,0.9977173913043478,50,496,5281,PC,no_split,narrow,individual,1,0.4191904067993164
0,0.0,0.451196698046665,0.35470497912284915,0.3763888556767906,0.39490945177537096,0.41445085243803487,0.4345306594290518,0.4576835252898621,0.48447123987267326,0.5184339828577305,0.5683665913958275,1.007860851054033,0.9996739130434783,0.4778957732523054,0.0,0.9976216216216216,50,496,5332,PC,no_split,narrow,individual,1,0.5005743503570557
1,1.0,0.5043077616277777,0.39470895341359397,0.42793028065594435,0.4530822040046404,0.47643557730862807,0.49907496267139606,0.5219309858012776,0.5462471420060828,0.5749465756765022,0.6183784454011094,0.9305150344173803,0.9955913978494624,0.4778957732523054,0.0,0.9976216216216216,50,496,5332,PC,no_split,narrow,individual,1,0.5005743503570557
0,0.0,0.4404675685019262,0.32517179991534556,0.35277078093638664,0.3761621736859783,0.3992695022809803,0.4234738928278482,0.4500433399366338,0.4801720938497876,0.5182877848123527,0.5770359727898119,1.0612420784839214,0.9992893401015228,0.47406131209166974,0.0,0.9978461538461538,50,496,5575,PC,no_split,narrow,individual,1,0.5074179172515869
1,1.0,0.5083512990718744,0.3736715878007253,0.41412407761135284,0.447587594461736,0.47513187129511364,0.50299088633404,0.5292420784839216,0.5590055157687023,0.5959025100244222,0.6478620941042017,1.0040433399366337,0.9963730569948187,0.47406131209166974,0.0,0.9978461538461538,50,496,5575,PC,no_split,narrow,individual,1,0.5074179172515869
0,0.0,0.4437792410349853,0.3122653050256578,0.34236408532569956,0.3680072072995555,0.39339013344026685,0.4200730927989519,0.45002761278160086,0.48422922365891624,0.5315278627084612,0.6078028272244638,1.3330276127816008,0.9992746113989638,0.483417774132162,0.0,0.9965816326530612,50,496,5731,PC,no_split,narrow,individual,1,0.5105533599853516
1,1.0,0.5218611755781676,0.3685723888883392,0.4147948140905434,0.4526564211448949,0.48275971959759223,0.5136792876813797,0.5447219675372001,0.5788250372697256,0.6205471283765053,0.6826973798092649,1.1948657771532545,0.9939698492462311,0.483417774132162,0.0,0.9965816326530612,50,496,5731,PC,no_split,narrow,individual,1,0.5105533599853516
0,0.0,0.4370582500989535,0.3534507555519963,0.37106189950697677,0.38764321576421884,0.40334465851475665,0.4195712381994221,0.43836108686652175,0.4621720573431385,0.49210211097064477,0.5438127539004901,0.9341304390761787,0.9995652173913043,0.4703212479665048,0.0,0.9928065395095368,50,496,5761,PC,no_split,narrow,individual,1,0.4436018466949463
1,1.0,0.5037660108497256,0.3977080725510691,0.42968929713516046,0.45367926441917106,0.4756785616095369,0.4963630138058554,0.5187503180268359,0.5442843285903026,0.5727948916298431,0.6156184179657915,0.9271720573431385,0.9860109289617486,0.4703212479665048,0.0,0.9928065395095368,50,496,5761,PC,no_split,narrow,individual,1,0.4436018466949463
0,0.0,0.4468686306732915,0.324539916996646,0.3441453803658181,0.36327961089354144,0.3858555386000747,0.4097539758465982,0.4386144914788796,0.47468680561523796,0.529457774285801,0.6204582972144206,1.41949028652848,0.9525,0.45876249052617574,0.0,0.9283468834688346,50,496,5803,PC,no_split,narrow,individual,1,0.419905424118042
1,1.0,0.46870362711963126,0.33484023277657143,0.3618489930421489,0.38815916521286015,0.4143265914644204,0.4401514163226101,0.4720088650457272,0.5084143934764709,0.5541418081950857,0.6376562265389746,1.4861596974167972,0.9081592039800995,0.45876249052617574,0.0,0.9283468834688346,50,496,5803,PC,no_split,narrow,individual,1,0.419905424118042
0,0.0,0.49958436151292396,0.35281970728271744,0.38213690117277144,0.4077560144507896,0.43527278242374307,0.46431911722431096,0.49781970728271746,0.5408085787376127,0.5988961421613793,0.6948081205076005,1.451763830497262,0.9970149253731343,0.5313425103038532,0.0,0.9878552971576228,50,496,5815,PC,no_split,narrow,individual,1,0.42031264305114746
1,1.0,0.5656618001263086,0.3978038585256698,0.44423855563470394,0.4823556557039117,0.5166674914333473,0.5488568273938593,0.5839408682735454,0.6233452007043732,0.6731699924615485,0.750809767952783,1.4491469727291952,0.9779569892473118,0.5313425103038532,0.0,0.9878552971576228,50,496,5815,PC,no_split,narrow,individual,1,0.42031264305114746
0,0.0,0.41959459540215405,0.3426782074482298,0.35937317168836597,0.37481195861795014,0.3901688739164102,0.4056599464752917,0.4229872906221372,0.44349853660525945,0.4702200365319577,0.5148257777287258,1.035727158439492,0.9995505617977528,0.4492302213397593,0.0,0.9935149863760218,50,496,6055,PC,no_split,narrow,individual,1,0.4173142910003662
1,1.0,0.4771410224873452,0.3718235306075519,0.4021621703245186,0.42679760421752316,0.4486980431227982,0.47015211493668124,0.49017202000551696,0.5150397704038671,0.5447548300516292,0.5903920215078604,1.048749196574683,0.9878306878306878,0.4492302213397593,0.0,0.9935149863760218,50,496,6055,PC,no_split,narrow,individual,1,0.4173142910003662
0,0.0,0.483333678922406,0.3441297206556217,0.3703598999173974,0.3950942020715198,0.41917904893039615,0.4461722080813922,0.4801200816355619,0.5215976570062386,0.578050089186314,0.6691074585531371,1.3507264266186654,0.9861224489795918,0.49826930064650543,0.0,0.9759016393442623,50,496,6109,PC,no_split,narrow,individual,1,0.5068867206573486
1,1.0,0.5154891939284084,0.36294430834405167,0.39679892074177947,0.4299572877260007,0.4602516626613109,0.4900232362221443,0.5251967514813911,0.5638949254794818,0.6130379155499853,0.6969616581314197,1.472738990413461,0.9641176470588235,0.49826930064650543,0.0,0.9759016393442623,50,496,6109,PC,no_split,narrow,individual,1,0.5068867206573486
0,0.0,0.40028262127816006,0.3231829807838515,0.33789613281858244,0.35110896283665355,0.36537230414184896,0.3800221142521546,0.39759891594846564,0.4184283306951906,0.44979712203181127,0.5031039160283933,1.2266681269244082,0.9967924528301887,0.43266172968954414,0.0,0.9786570743405276,50,496,6214,PC,no_split,narrow,individual,1,0.5097482204437256
1,1.0,0.46614646619302424,0.35275662627476506,0.3863022026293608,0.4120452224030712,0.43591521491110297,0.45744482829287225,0.48022273358488987,0.505906858697229,0.5368073623091987,0.5874134546170389,0.9650999642832331,0.9599024390243902,0.43266172968954414,0.0,0.9786570743405276,50,496,6214,PC,no_split,narrow,individual,1,0.5097482204437256
0,0.0,0.47605729080671183,0.34326093211592684,0.3702892764164825,0.3941498869905024,0.42057283124829176,0.44973407672057775,0.47906653102356817,0.5159883277045043,0.5636299978470307,0.6441878605590082,1.4191498869905024,0.9865957446808511,0.48516057456990386,0.0,0.9819098143236075,50,496,6253,PC,no_split,narrow,individual,1,0.5166566371917725
1,1.0,0.49421569281053934,0.3531362807390575,0.38648001076585625,0.41461704547493006,0.44260154657292916,0.47146736751989493,0.5034026458931584,0.5390856875269787,0.584329345019534,0.6569861761295158,1.482458285359573,0.9772486772486773,0.48516057456990386,0.0,0.9819098143236075,50,496,6253,PC,no_split,narrow,individual,1,0.5166566371917725
0,0.0,0.46440873165673424,0.35634138238137847,0.3796533080615824,0.40152993174700374,0.4215421570393293,0.4432338190719098,0.46763158975352914,0.4966556681705104,0.5354710115792056,0.6011172013280692,1.192738387864803,0.998232044198895,0.4889357067948558,0.0,0.9946195652173913,50,496,6262,PC,no_split,narrow,individual,1,0.4730246067047119
1,1.0,0.5126757201638397,0.3867527644030669,0.4227631249787035,0.4513293650471546,0.47545322521417455,0.5002778554036607,0.5284839078273063,0.55866526011997,0.5946284169491017,0.650816406229011,1.1219452371789338,0.9911229946524064,0.4889357067948558,0.0,0.9946195652173913,50,496,6262,PC,no_split,narrow,individual,1,0.4730246067047119
0,0.0,0.5004148238181666,0.3936166562391764,0.4180954312197546,0.440251077103516,0.46196271733275307,0.4841599831816825,0.508722429357457,0.5369828161184472,0.5732004666593512,0.6269510316855577,1.0813251996894304,0.9992513368983957,0.5175927705166088,0.0,0.9967934782608696,50,496,6361,PC,no_split,narrow,individual,1,0.44915246963500977
1,1.0,0.5353401519122369,0.42230570302855974,0.45475664670230614,0.4796833265670762,0.5027176856473018,0.5253265050039825,0.5490954312197546,0.5750301922413803,0.6093257218152512,0.6598893507458921,1.5161350779843965,0.9942541436464089,0.5175927705166088,0.0,0.9967934782608696,50,496,6361,PC,no_split,narrow,individual,1,0.44915246963500977
0,0.0,0.4214376803815435,0.32194228250785684,0.34393170119760047,0.36296291486951543,0.3829392120643606,0.40329520606530755,0.426384927215578,0.4533451864155639,0.48987471748393635,0.5456470326904904,1.1612627671406268,0.9983606557377049,0.4420001333582476,0.0,0.9947894736842106,50,496,6427,PC,no_split,narrow,individual,1,0.4114377498626709
1,1.0,0.46110129526046506,0.34829520606530756,0.38128776632328437,0.40621048386320296,0.42855674210440275,0.4509225158030254,0.47387581160093023,0.5005683670942024,0.5343211915768751,0.584876764638474,1.0891172827442313,0.9914720812182741,0.4420001333582476,0.0,0.9947894736842106,50,496,6427,PC,no_split,narrow,individual,1,0.4114377498626709
0,0.0,0.473813004526016,0.37247962491819275,0.3932780975320155,0.41254054950086333,0.43234123379655914,0.4532777187716148,0.4778974675982926,0.5062903117325035,0.5420323564573194,0.6036379070492701,1.01871142546695,0.9936125654450262,0.48433412071770254,0.0,0.988759894459103,50,496,6583,PC,no_split,narrow,individual,1,0.4163217544555664
1,1.0,0.49502312706138407,0.3846270574579144,0.41170998864912967,0.4355409275717827,0.45745561920976296,0.4801263657996788,0.5047071150134889,0.5323085746979656,0.5674529956417241,0.6253720725470205,1.0935719359453235,0.9838297872340426,0.48433412071770254,0.0,0.988759894459103,50,496,6583,PC,no_split,narrow,individual,1,0.4163217544555664
0,0.0,0.44768694980056534,0.35375020538874113,0.3716719483613781,0.3882227155636569,0.4051460753086846,0.42285446874635163,0.4424891944047434,0.4697543428630336,0.5078597444004387,0.5725888691635838,1.2946099003568405,0.9923076923076923,0.4734070010826166,0.0,0.978974358974359,50,496,6634,PC,no_split,narrow,individual,1,0.48560571670532227
1,1.0,0.4991270523646679,0.3757597154067242,0.408388866770579,0.43484418658768587,0.45924428220222047,0.4846140593197399,0.5099177765171324,0.5403736278521625,0.5789031160439321,0.6408596412932314,1.4668471998068993,0.9656410256410256,0.4734070010826166,0.0,0.978974358974359,50,496,6634,PC,no_split,narrow,individual,1,0.48560571670532227
0,0.0,0.457091978169746,0.36212089033080663,0.38103484339419336,0.3989934029795113,0.41681147509516736,0.43430340143907165,0.45558955637386,0.4825888563921092,0.5190906279174428,0.580066897342946,1.1486378492345624,0.9973684210526316,0.49373355431009686,0.0,0.98656,50,496,6844,PC,no_split,narrow,individual,1,0.4926643371582031
1,1.0,0.531365443319106,0.39585220056405784,0.4350140191909316,0.466621951465745,0.49367988103054705,0.5213073575765812,0.5489073916001359,0.5783091100467486,0.6168453723587869,0.675641776281399,1.2563062612958047,0.9754594594594594,0.49373355431009686,0.0,0.98656,50,496,6844,PC,no_split,narrow,individual,1,0.4926643371582031
0,0.0,0.4463358405430378,0.34817405138878027,0.3657617032664154,0.38375153485491026,0.4022558868698718,0.4221584983422105,0.4436853978642745,0.46962739485068855,0.5089412521607556,0.5791198832626967,1.484590326967816,0.9947540983606558,0.47465146866054647,0.0,0.9814713896457765,50,496,7624,PC,no_split,narrow,individual,1,0.5080912113189697
1,1.0,0.5028132074948078,0.37540585853169234,0.4095478275820654,0.4385628158194329,0.4643442631088795,0.48933204139506076,0.5173976210728191,0.5466174214825033,0.5852498083743969,0.641879395560856,1.2374986231398721,0.9682608695652174,0.47465146866054647,0.0,0.9814713896457765,50,496,7624,PC,no_split,narrow,individual,1,0.5080912113189697
0,0.0,0.4142740927917138,0.33266492800023695,0.3486579139600924,0.36359877035466337,0.37794187934469253,0.3941901253853213,0.4128827403556174,0.4350096973502304,0.4656372614348972,0.5164609366837579,1.2544597354939986,0.9925133689839573,0.4435579257457357,0.0,0.974308093994778,50,496,7756,PC,no_split,narrow,individual,1,0.4927530288696289
1,1.0,0.47149709290084835,0.353952031171168,0.3854760358132719,0.4095303849787413,0.43375632055295493,0.45788828749186816,0.4843558862581205,0.5125211282949043,0.548194412269058,0.6024346366232464,1.1502952321032232,0.9569387755102041,0.4435579257457357,0.0,0.974308093994778,50,496,7756,PC,no_split,narrow,individual,1,0.4927530288696289
0,0.0,0.4407929337547967,0.3277929382209337,0.35454577655484176,0.3770271160473345,0.3999704479954197,0.4235210233553998,0.4488306224632641,0.47872849942737217,0.5167150086410355,0.5765825937264906,1.1280358248948328,0.9970833333333333,0.4536437141692352,0.0,0.9951336898395722,50,496,7768,PC,no_split,narrow,individual,1,0.4050407409667969
1,1.0,0.4672005814196319,0.34622375705550473,0.3777399536615585,0.4047284624231486,0.42953964139544293,0.45404636791327435,0.48012853224785934,0.5097322437961814,0.546779825958743,0.6051955120713843,1.0987636477092326,0.9930769230769231,0.4536437141692352,0.0,0.9951336898395722,50,496,7768,PC,no_split,narrow,individual,1,0.4050407409667969
0,0.0,0.41187588637639755,0.3073584661963463,0.3265075892491613,0.34462567852133685,0.36191275023276465,0.3813557701299559,0.40417886957408844,0.43517411078389023,0.4777663444007664,0.5553679268484657,1.342325056759596,0.9925133689839573,0.44383140819802946,0.0,0.9716666666666667,50,496,7807,PC,no_split,narrow,individual,1,0.4121224880218506
1,1.0,0.47613239512043576,0.33346729010650994,0.37057415914129904,0.40167989711582835,0.43007782270978534,0.4594919289337353,0.48960167975891655,0.5242156671793431,0.5663720514557162,0.6394232953182046,1.2717945622266875,0.9505945945945946,0.44383140819802946,0.0,0.9716666666666667,50,496,7807,PC,no_split,narrow,individual,1,0.4121224880218506
0,0.0,0.4052720145754477,0.32186000367105255,0.3382476264704498,0.3533800369530794,0.36844728748901345,0.3845304028712757,0.4031221973390456,0.4280797253714992,0.4604624777481891,0.5144591817978899,0.9855064714840387,0.9929670329670329,0.42620396824504675,0.0,0.9838227146814404,50,496,7813,PC,no_split,narrow,individual,1,0.4360799789428711
1,1.0,0.44748673678061684,0.3424167295326535,0.36986965070153444,0.39387109866043807,0.41408931654824754,0.43608180739578273,0.45832844024983205,0.48292611888959763,0.5162090791340395,0.5661653219188669,0.9903908080491586,0.9745251396648045,0.42620396824504675,0.0,0.9838227146814404,50,496,7813,PC,no_split,narrow,individual,1,0.4360799789428711
0,0.0,0.40572064569053096,0.3309073653515209,0.34849773399605033,0.36408446155889435,0.37903888788522216,0.39396634740326114,0.41037838467632143,0.43110162666602075,0.4559091075393942,0.4945542529786149,0.8424579837804553,0.9995744680851064,0.44010806511332423,0.0,0.996980198019802,50,496,7828,PC,no_split,narrow,individual,1,0.40878796577453613
1,1.0,0.4700378560924222,0.3719454381021115,0.40191688907751927,0.42499076768973687,0.44648157384620907,0.4649253131828475,0.4849094828507797,0.5074734121181654,0.5341612910553306,0.5721240185196403,0.8521475474329449,0.9947222222222222,0.44010806511332423,0.0,0.996980198019802,50,496,7828,PC,no_split,narrow,individual,1,0.40878796577453613
0,0.0,0.5422770241330519,0.3880918328765823,0.418656125365023,0.44714744425347475,0.4740918652644521,0.5065092382862879,0.5432779847088736,0.5839134843089406,0.6443271733471835,0.7473064801805611,1.4731610781819173,0.9935449735449735,0.5639851525937385,0.0,0.9848062015503876,50,496,7840,PC,no_split,narrow,individual,1,0.496509313583374
1,1.0,0.5847065479425757,0.41511032055869546,0.457837377553366,0.4946464056750776,0.5271191508789013,0.5623086300165581,0.5992824478231162,0.6429219199790236,0.6962379363552734,0.7806001378466851,1.5274084677335502,0.9764646464646465,0.5639851525937385,0.0,0.9848062015503876,50,496,7840,PC,no_split,narrow,individual,1,0.496509313583374
0,0.0,0.47022387127805865,0.3854210986592633,0.4054384352207996,0.4233852622970218,0.4407011751852742,0.4570924393336233,0.47608968125411427,0.49883864107451104,0.5284503869295278,0.5715642503294999,0.929451518422405,0.9998888888888889,0.4966149423891698,0.0,0.9978666666666667,50,496,7924,PC,no_split,narrow,individual,1,0.5022940635681152
1,1.0,0.5209759311071185,0.4182285266190058,0.449573300390436,0.473436393847161,0.4939826447628219,0.514191797396498,0.5362738543216802,0.5604528774015163,0.5875412326455794,0.6289577493692985,0.9354221042316911,0.996,0.4966149423891698,0.0,0.9978666666666667,50,496,7924,PC,no_split,narrow,individual,1,0.5022940635681152
0,0.0,0.4622200270858044,0.3560958465493382,0.38170719000598896,0.40408237155558047,0.425349633923666,0.44636068638245563,0.4700833031867799,0.49762290473842397,0.5326802446283058,0.5866244088264579,1.1140918513641722,0.9987368421052631,0.4810427386114539,0.0,0.9976202531645569,50,496,7939,PC,no_split,narrow,individual,1,0.4935169219970703
1,1.0,0.49848817856205596,0.3835012777701236,0.4162356930779164,0.44162440882645804,0.46566797277434646,0.4892759975214571,0.5146443285038489,0.5401684034253685,0.573316607113927,0.6251500053825392,1.0120801977494485,0.9965853658536585,0.4810427386114539,0.0,0.9976202531645569,50,496,7939,PC,no_split,narrow,individual,1,0.4935169219970703
0,0.0,0.4511336897546446,0.33589278725345795,0.3592342668149285,0.3819085840276325,0.40499760015883307,0.42735254275408113,0.4540296197446327,0.48628598081297314,0.5292754683548863,0.599003733563501,1.2030253068786336,0.9962424242424243,0.47699419822922084,0.0,0.9897175141242938,50,496,8026,PC,no_split,narrow,individual,1,0.4196171760559082
1,1.0,0.4995708326117874,0.3589087605416225,0.396998245158781,0.426413095790855,0.45559005498494715,0.4836346106910721,0.5139948134218336,0.5490796198419824,0.592506789627664,0.6559131959666119,1.1720999807948702,0.984021164021164,0.47699419822922084,0.0,0.9897175141242938,50,496,8026,PC,no_split,narrow,individual,1,0.4196171760559082
0,0.0,0.45983861367253975,0.33242689045592083,0.3544443791742609,0.37456685994749767,0.39675632055295496,0.4215636753675286,0.4520222423984747,0.48876817239001935,0.5464547419798556,0.632895978623129,1.4096200498221387,0.9718716577540107,0.47614919487538204,0.0,0.9553972602739726,50,496,8311,PC,no_split,narrow,individual,1,0.4197700023651123
1,1.0,0.4932844683862332,0.34578289181727684,0.3794708695163443,0.4086413526621715,0.43691212293125986,0.46724331114309675,0.4987643526032562,0.5387157540185701,0.5889865135677037,0.6677623392666171,1.3813158344634078,0.9380898876404494,0.47614919487538204,0.0,0.9553972602739726,50,496,8311,PC,no_split,narrow,individual,1,0.4197700023651123
0,0.0,0.39270527313151443,0.3085338716889701,0.3249949721742489,0.3398037328357474,0.3550647057600219,0.37107423985205523,0.3912454797932993,0.4155529898800437,0.4469058046180855,0.5009849486747929,1.074440994538263,0.9972020725388601,0.42811000233942825,0.0,0.9834146341463414,50,496,8446,PC,no_split,narrow,individual,1,0.4504053592681885
1,1.0,0.466934506527652,0.34054245189065985,0.3762711184230973,0.40502557608327355,0.4321980767258234,0.4575977536713165,0.4843949138122038,0.5132878883762646,0.5474635717463985,0.60007697410078,1.012996415715846,0.9682954545454545,0.42811000233942825,0.0,0.9834146341463414,50,496,8446,PC,no_split,narrow,individual,1,0.4504053592681885
0,0.0,0.4914288650750906,0.3898916689399756,0.4119013431852666,0.4304840817870702,0.45092197024820985,0.4711473224544994,0.4942376417787312,0.5220511818713652,0.558486901408471,0.6194022037526868,1.1663176908651458,0.9947738693467336,0.503269852871214,0.0,0.9899220779220779,50,496,8521,PC,no_split,narrow,individual,1,0.43564319610595703
1,1.0,0.515938436588572,0.4025832872147184,0.43108230934658764,0.4547728529494236,0.4784725183081617,0.5001832509133786,0.5248982494690407,0.5537119806437842,0.5913844043833071,0.6485863044619259,1.0364591683773579,0.9847311827956989,0.503269852871214,0.0,0.9899220779220779,50,496,8521,PC,no_split,narrow,individual,1,0.43564319610595703
0,0.0,0.5526350505693304,0.4104080995834392,0.4434951540679114,0.47187505031255195,0.5012765223293314,0.5297910057237479,0.5639182782964565,0.6005842443616929,0.6495603257887573,0.7224523305914595,1.509426998610055,0.9985792349726776,0.5655807658839686,0.0,0.996676217765043,50,496,8704,PC,no_split,narrow,individual,1,0.5086877346038818
1,1.0,0.5798522472248048,0.43220125498557715,0.47344954010777607,0.5067969197715627,0.536623789145976,0.5668692790629177,0.5976810539035616,0.6329562660657697,0.6759026627281923,0.7424081425069994,1.2997122703717938,0.994578313253012,0.5655807658839686,0.0,0.996676217765043,50,496,8704,PC,no_split,narrow,individual,1,0.5086877346038818
0,0.0,0.4472411516497527,0.3202301965228593,0.350332301795611,0.378061189009189,0.4040311675580701,0.4312847984708985,0.4607221159683638,0.4922925183975217,0.5331194077171191,0.5960712181304973,1.0203192675551656,0.9997101449275362,0.47297871602048835,0.0,0.9989175257731959,50,496,8755,PC,no_split,narrow,individual,1,0.499251127243042
1,1.0,0.5024133890853627,0.36115622115912777,0.4047845495672764,0.4380796628627626,0.46696440194598987,0.49483772200034853,0.525061189009189,0.5568376848903837,0.59578890961753,0.6507779977834856,0.9839282247414921,0.9980110497237569,0.47297871602048835,0.0,0.9989175257731959,50,496,8755,PC,no_split,narrow,individual,1,0.499251127243042
0,0.0,0.4570368966753013,0.3442544744867286,0.3695614801146167,0.39209328244725794,0.4145819089443498,0.43845577114849776,0.46510925251831425,0.49364879730324973,0.5315722043523606,0.5946036773667168,1.09358190894435,0.9990384615384615,0.4786923620599167,0.0,0.9963,50,496,8785,PC,no_split,narrow,individual,1,0.4093291759490967
1,1.0,0.5021524495599167,0.384103318892279,0.4183942972549153,0.4441137362823642,0.468588939084036,0.4937578844618462,0.5179327379850915,0.5458513616631612,0.5790040276969906,0.6276541753711387,1.1514550530883825,0.9933333333333333,0.4786923620599167,0.0,0.9963,50,496,8785,PC,no_split,narrow,individual,1,0.4093291759490967
0,0.0,0.41743653512214374,0.31223819815863446,0.33062706355905985,0.3478356734008249,0.3668209697742336,0.38685041514818413,0.41007349706492013,0.44056124017065373,0.48452786373352463,0.5583792459864526,1.3837343546783507,0.9910638297872341,0.4510592688091754,0.0,0.9669922879177378,50,496,8788,PC,no_split,narrow,individual,1,0.4068026542663574
1,1.0,0.4825073978298816,0.3357113612066133,0.3722377745302758,0.40437924074652093,0.4351292650633151,0.46589608404629596,0.49690796675815624,0.5315647656167928,0.575392105896517,0.6490779206027135,1.3985188659762942,0.9444776119402986,0.4510592688091754,0.0,0.9669922879177378,50,496,8788,PC,no_split,narrow,individual,1,0.4068026542663574
0,0.0,0.4301688561156652,0.37044309665277586,0.38207282090243044,0.3930018291008799,0.40396912876032515,0.4160780049009321,0.42935420731856394,0.44681179397898113,0.4688883004025623,0.5068765990613118,0.947464285593471,0.9975555555555555,0.4541212768806925,0.0,0.9861202185792349,50,496,161753,PC,no_split,narrow,individual,1,0.4107654094696045
1,1.0,0.4773010389113641,0.39049266549900463,0.41449266549900465,0.43465757989579784,0.4529105474315257,0.47039110570558773,0.4878827386453214,0.5075738210788366,0.5331628948794596,0.5709532975123258,0.9425343713920774,0.9750537634408603,0.4541212768806925,0.0,0.9861202185792349,50,496,161753,PC,no_split,narrow,individual,1,0.4107654094696045
0,0.0,0.45167815843194015,0.3672942755405644,0.38761083859486883,0.40411135681495874,0.42058998575485634,0.4384632437394431,0.45753825207580656,0.4794828933059151,0.5070126441915845,0.552588056180861,0.8980272115152566,0.9991752577319588,0.47021621447493206,0.0,0.9961702127659574,50,496,337788,PC,no_split,narrow,individual,1,0.4086730480194092
1,1.0,0.48997655992735195,0.38875340129980784,0.4167327890569023,0.4408496560694159,0.4617795033929407,0.48229531667362174,0.5035409187437787,0.5271308727553481,0.5561790251991351,0.6000432550497057,0.929130872755348,0.9929670329670329,0.47021621447493206,0.0,0.9961702127659574,50,496,337788,PC,no_split,narrow,individual,1,0.4086730480194092
